,trial_type,trial_index,time_elapsed,internal_node_id,rt,revealed_states,stateRewards,trial_id,block,trialIndex,score,simulationMode,rewards,path,actions,actionTimes,queries,displayed_time,trialTime,pid
0,mouselab-mdp,3,109330,-2.0,"[12464, 2, 564]",[],"['', 4, 8, 24, 48, -4, -8, -24, -24, 4, -4, 24, 48]",-6.519267732573938e+18,test,0.0,53.0,"[None, None, None]","[4, 8, 48]","['0', '0', '1', '2', '4']","['up', 'up', 'left']","[13776, 14299, 15393]","{'click': {'state': {'target': ['5', '1', '9', '10', '2', '3', '4'], 'time': [4870, 5901, 6774, 8104, 9178, 10887, 12026]}, 'edge': {'target': [], 'time': []}}, 'mouseover': {'state': {'target': [], 'time': []}, 'edge': {'target': [], 'time': []}}, 'mouseout': {'state': {'target': [], 'time': []}, 'edge': {'target': [], 'time': []}}}",15.92,18182.0,0
1,mouselab-mdp,4,131868,-3.0,"[15602, 371, 3]",[],"['', 4, -8, 24, 24, 2, 4, -24, 24, 4, -4, 48, -48]",-7.876836446114167e+18,test,1.0,38.0,"[None, None, None]","[4, -4, 48]","['0', '0', '9', '10', '11']","['left', 'left', 'up']","[17431, 18326, 18853]","{'click': {'state': {'target': ['9', '1', '5', '6', '10', '11', '2', '3', '4', '12'], 'time': [3355, 4226, 4999, 5789, 6939, 8864, 10054, 10818, 11624, 14112]}, 'edge': {'target': [], 'time': []}}, 'mouseover': {'state': {'target': [], 'time': []}, 'edge': {'target': [], 'time': []}}, 'mouseout': {'state': {'target': [], 'time': []}, 'edge': {'target': [], 'time': []}}}",19.38,21475.0,0
2,mouselab-mdp,5,153582,-4.0,"[13196, 508, 304]",[],"['', -2, 8, -24, 48, 2, 4, -48, 24, 4, -4, 48, 48]",3.7613543166592143e+18,test,2.0,39.0,"[None, None, None]","[4, -4, 48]","['0', '0', '9', '10', '11']","['left', 'left', 'up']","[15517, 16546, 17372]","{'click': {'state': {'target': ['1', '9', '5', '10', '11', '12', '7', '6', '8'], 'time': [4216, 4975, 5739, 6899, 7709, 9160, 11731, 12495, 13143]}, 'edge': {'target': [], 'time': []}}, 'mouseover': {'state': {'target': [], 'time': []}, 'edge': {'target': [], 'time': []}}, 'mouseout': {'state': {'target': [], 'time': []}, 'edge': {'target': [], 'time': []}}}",17.9,20662.0,0
3,mouselab-mdp,6,171876,-5.0,"[9700, 197, 535]",[],"['', 4, 4, -48, 24, -2, 4, 48, -24, 4, 4, -48, 48]",3.9111036278787256e+18,test,3.0,49.0,"[None, None, None]","[4, 4, 48]","['0', '0', '9', '10', '12']","['left', 'left', 'down']","[12443, 13171, 14241]","{'click': {'state': {'target': ['1', '5', '9', '2', '11', '12', '10'], 'time': [3398, 4268, 5152, 6338, 7817, 8712, 9767]}, 'edge': {'target': [], 'time': []}}, 'mouseover': {'state': {'target': [], 'time': []}, 'edge': {'target': [], 'time': []}}, 'mouseout': {'state': {'target': [], 'time': []}, 'edge': {'target': [], 'time': []}}}",14.77,17228.0,0
4,mouselab-mdp,7,191991,-6.0,"[15399, 140, 86]",[],"['', 4, 4, 48, 24, 4, -4, 24, -48, -2, -8, -24, -48]",5.662483218820924e+17,test,4.0,46.0,"[None, None, None]","[4, 4, 48]","['0', '0', '1', '2', '3']","['up', 'up', 'right']","[16661, 17329, 17940]","{'click': {'state': {'target': ['1', '5', '9', '3', '4', '11', '12', '8', '7', '6'], 'time': [3912, 4763, 5462, 6631, 7861, 9137, 9994, 12481, 13498, 14592]}, 'edge': {'target': [], 'time': []}}, 'mouseover': {'state': {'target': [], 'time': []}, 'edge': {'target': [], 'time': []}}, 'mouseout': {'state': {'target': [], 'time': []}, 'edge': {'target': [], 'time': []}}}",18.47,19036.0,0
5,mouselab-mdp,8,205394,-7.0,"[8998, 32, 49]",[],"['', 2, 8, -48, -48, 4, 4, -48, 48, 4, 8, 24, -48]",2.59484151301768e+18,test,5.0,48.0,"[None, None, None]","[4, 4, 48]","['0', '0', '5', '6', '8']","['right', 'right', 'down']","[10162, 10715, 11297]","{'click': {'state': {'target': ['1', '5', '9', '6', '7', '11', '12', '8'], 'time': [1873, 2444, 3987, 4713, 5444, 6794, 7634, 8618]}, 'edge': {'target': [], 'time': []}}, 'mouseover': {'state': {'target': [], 'time': []}, 'edge': {'target': [], 'time': []}}, 'mouseout': {'state': {'target': [], 'time': []}, 'edge': {'target': [], 'time': []}}}",11.83,12351.0,0
6,mouselab-mdp,9,230424,-8.0,"[17357, 379, 75]",[],"['', -2, -8, 24, 24, -2, -8, 24, -24, 4, -4, 24, -48]",7.419235085028047e+18,test,6.0,12.0,"[None, None, None]","[4, -4, 24]","['0', '0', '9', '10', '11']","['left', 'left', 'up']","[21114, 22024, 22634]","{'click': {'state': {'target': ['1', '5', '9', '11', '12', '7', '8', '3', '4', '2', '6', '10'], 'time': [4513, 5255, 5974, 7141, 8176, 9180, 10116, 11229, 12017, 13678, 14677, 15863]}, 'edge': {'target': [], 'time': []}}, 'mouseover': {'state': {'target': [], 'time': []}, 'edge': {'target': [], 'time': []}}, 'mouseout': {'state': {'target': [], 'time': []}, 'edge': {'target': [], 'time': []}}}",23.16,23979.0,0
7,mouselab-mdp,10,248423,-9.0,"[13630, 26, 3]",[],"['', -2, 8, -24, 48, 2, -4, 48, 24, -2, 8, -24, -24]",7.530597343457169e+17,test,7.0,44.0,"[None, None, None]","[-2, 8, 48]","['0', '0', '1', '2', '4']","['up', 'up', 'left']","[14766, 15326, 15851]","{'click': {'state': {'target': ['1', '5', '9', '11', '8', '7', '6', '3', '4', '2'], 'time': [2243, 2814, 3586, 4206, 5078, 6651, 7389, 8582, 9390, 13186]}, 'edge': {'target': [], 'time': []}}, 'mouseover': {'state': {'target': [], 'time': []}, 'edge': {'target': [], 'time': []}}, 'mouseout': {'state': {'target': [], 'time': []}, 'edge': {'target': [], 'time': []}}}",16.38,16950.0,0
8,mouselab-mdp,11,268640,-10.0,"[13037, 598, 116]",[],"['', -4, 4, -48, -24, 4, 4, 24, -48, -2, 4, 48, -48]",-3.2418898182311296e+18,test,8.0,43.0,"[None, None, None]","[-2, 4, 48]","['0', '0', '9', '10', '11']","['left', 'left', 'up']","[16104, 17232, 17878]","{'click': {'state': {'target': ['1', '5', '9', '7', '8', '11', '10'], 'time': [5097, 6295, 7021, 8421, 9193, 11118, 14980]}, 'edge': {'target': [], 'time': []}}, 'mouseover': {'state': {'target': [], 'time': []}, 'edge': {'target': [], 'time': []}}, 'mouseout': {'state': {'target': [], 'time': []}, 'edge': {'target': [], 'time': []}}}",18.41,19169.0,0
9,mouselab-mdp,12,285526,-11.0,"[12969, 36, 66]",[],"['', -4, -8, 48, -48, -2, -8, 48, 24, -2, 8, 24, -24]",6.221411054408101e+18,test,9.0,28.0,"[None, None, None]","[-2, -8, 48]","['0', '0', '5', '6', '7']","['right', 'right', 'up']","[13760, 14319, 14917]","{'click': {'state': {'target': ['1', '5', '9', '11', '12', '7', '6', '3', '4', '2'], 'time': [1456, 1973, 2609, 4016, 4769, 5791, 7105, 9561, 10545, 11924]}, 'edge': {'target': [], 'time': []}}, 'mouseover': {'state': {'target': [], 'time': []}, 'edge': {'target': [], 'time': []}}, 'mouseout': {'state': {'target': [], 'time': []}, 'edge': {'target': [], 'time': []}}}",15.45,15836.0,0
10,mouselab-mdp,13,297200,-12.0,"[7124, 58, 108]",[],"['', 2, -4, -24, -24, -4, 4, 24, -48, 4, 8, 48, 48]",-4.2504753121493e+18,test,10.0,56.0,"[None, None, None]","[4, 8, 48]","['0', '0', '9', '10', '11']","['left', 'left', 'up']","[8149, 8733, 9365]","{'click': {'state': {'target': ['1', '5', '9', '11'], 'time': [1760, 2631, 3295, 5589]}, 'edge': {'target': [], 'time': []}}, 'mouseover': {'state': {'target': [], 'time': []}, 'edge': {'target': [], 'time': []}}, 'mouseout': {'state': {'target': [], 'time': []}, 'edge': {'target': [], 'time': []}}}",9.89,10625.0,0
11,mouselab-mdp,14,315974,-13.0,"[11773, 698, 182]",[],"['', -2, 4, 24, 24, 4, 8, -48, 24, -2, 8, -48, -24]",-9.08425462156937e+18,test,11.0,26.0,"[None, None, None]","[4, 8, 24]","['0', '0', '5', '6', '8']","['right', 'right', 'down']","[14390, 15621, 16332]","{'click': {'state': {'target': ['1', '5', '9', '8', '7', '3', '4', '11', '12', '6'], 'time': [4591, 5182, 5848, 6734, 7624, 8314, 9053, 9780, 10689, 12269]}, 'edge': {'target': [], 'time': []}}, 'mouseover': {'state': {'target': [], 'time': []}, 'edge': {'target': [], 'time': []}}, 'mouseout': {'state': {'target': [], 'time': []}, 'edge': {'target': [], 'time': []}}}",16.86,17726.0,0
12,mouselab-mdp,15,337092,-14.0,"[14869, 857, 87]",[],"['', -4, -8, -48, -48, -2, -8, -48, 48, -2, 4, -24, -24]",5.130275037508485e+18,test,12.0,27.0,"[None, None, None]","[-2, -8, 48]","['0', '0', '5', '6', '8']","['right', 'right', 'down']","[15944, 17333, 17944]","{'click': {'state': {'target': ['1', '5', '9', '10', '11', '7', '8', '6', '3', '4', '12'], 'time': [2475, 3571, 4338, 5712, 6320, 7179, 7866, 10337, 12478, 13421, 14446]}, 'edge': {'target': [], 'time': []}}, 'mouseover': {'state': {'target': [], 'time': []}, 'edge': {'target': [], 'time': []}}, 'mouseout': {'state': {'target': [], 'time': []}, 'edge': {'target': [], 'time': []}}}",18.47,20072.0,0
13,mouselab-mdp,16,349783,-15.0,"[6353, 649, 276]",[],"['', 4, 8, 24, 24, -4, -4, -24, -48, 2, -4, 48, 48]",2.060778120775652e+18,test,13.0,40.0,"[None, None, None]","[2, -4, 48]","['0', '0', '9', '10', '11']","['left', 'left', 'up']","[7235, 8406, 9212]","{'click': {'state': {'target': ['1', '5', '9', '3', '4', '11'], 'time': [1502, 2099, 2932, 3707, 4517, 5290]}, 'edge': {'target': [], 'time': []}}, 'mouseover': {'state': {'target': [], 'time': []}, 'edge': {'target': [], 'time': []}}, 'mouseout': {'state': {'target': [], 'time': []}, 'edge': {'target': [], 'time': []}}}",9.73,11620.0,0
14,mouselab-mdp,17,363311,-16.0,"[8120, 28, 122]",[],"['', -2, -4, 48, 24, -2, -4, -48, -24, -4, -4, 24, 48]",-3.177342720159176e+18,test,14.0,36.0,"[None, None, None]","[-2, -4, 48]","['0', '0', '1', '2', '3']","['up', 'up', 'right']","[9126, 9678, 10320]","{'click': {'state': {'target': ['1', '9', '5', '8', '7', '3'], 'time': [2426, 4124, 4783, 5452, 6380, 7028]}, 'edge': {'target': [], 'time': []}}, 'mouseover': {'state': {'target': [], 'time': []}, 'edge': {'target': [], 'time': []}}, 'mouseout': {'state': {'target': [], 'time': []}, 'edge': {'target': [], 'time': []}}}",10.85,12477.0,0
15,mouselab-mdp,18,374520,-17.0,"[5333, 171, 410]",[],"['', -2, 4, 48, -48, 4, -8, 48, 24, -2, -8, 24, 48]",-4.507891731722672e+18,test,15.0,36.0,"[None, None, None]","[-2, -8, 48]","['0', '0', '9', '10', '12']","['left', 'left', 'down']","[6998, 7698, 8636]","{'click': {'state': {'target': ['11', '12'], 'time': [3992, 4710]}, 'edge': {'target': [], 'time': []}}, 'mouseover': {'state': {'target': [], 'time': []}, 'edge': {'target': [], 'time': []}}, 'mouseout': {'state': {'target': [], 'time': []}, 'edge': {'target': [], 'time': []}}}",9.68,10155.0,0
16,mouselab-mdp,19,388873,-18.0,"[8385, 771, 264]",[],"['', 4, 8, 48, 48, -4, -8, -48, 24, 4, 8, 24, 24]",-5.73655695108881e+18,test,16.0,55.0,"[None, None, None]","[4, 8, 48]","['0', '0', '1', '2', '4']","['up', 'up', 'left']","[9427, 10733, 11522]","{'click': {'state': {'target': ['7', '8', '12', '11', '4'], 'time': [1889, 3666, 4753, 5577, 7535]}, 'edge': {'target': [], 'time': []}}, 'mouseover': {'state': {'target': [], 'time': []}, 'edge': {'target': [], 'time': []}}, 'mouseout': {'state': {'target': [], 'time': []}, 'edge': {'target': [], 'time': []}}}",12.05,13307.0,0
17,mouselab-mdp,20,400174,-19.0,"[4395, 697, 253]",[],"['', -4, 8, 48, -24, -2, 8, -24, -48, 4, 8, -24, 48]",-3.254006420049747e+18,test,17.0,50.0,"[None, None, None]","[-4, 8, 48]","['0', '0', '1', '2', '3']","['up', 'up', 'right']","[5428, 6652, 7437]","{'click': {'state': {'target': ['4', '3'], 'time': [3077, 3741]}, 'edge': {'target': [], 'time': []}}, 'mouseover': {'state': {'target': [], 'time': []}, 'edge': {'target': [], 'time': []}}, 'mouseout': {'state': {'target': [], 'time': []}, 'edge': {'target': [], 'time': []}}}",9.04,10239.0,0
18,mouselab-mdp,21,412559,-20.0,"[3806, 48, 928]",[],"['', 4, -4, 24, 24, 4, 4, 48, -48, 4, -8, -24, 48]",8.695590532405199e+18,test,18.0,53.0,"[None, None, None]","[4, 4, 48]","['0', '0', '5', '6', '7']","['right', 'right', 'up']","[5549, 6120, 7577]","{'click': {'state': {'target': ['1', '3', '7'], 'time': [2279, 3005, 3669]}, 'edge': {'target': [], 'time': []}}, 'mouseover': {'state': {'target': [], 'time': []}, 'edge': {'target': [], 'time': []}}, 'mouseout': {'state': {'target': [], 'time': []}, 'edge': {'target': [], 'time': []}}}",10.75,11328.0,0
19,mouselab-mdp,22,423200,-21.0,"[4007, 780, 222]",[],"['', -4, -4, 24, -24, -4, 4, 24, 24, 4, 4, 48, -48]",-7.890144164692454e+18,test,19.0,54.0,"[None, None, None]","[4, 4, 48]","['0', '0', '9', '10', '11']","['left', 'left', 'up']","[5086, 6390, 7143]","{'click': {'state': {'target': ['12', '11'], 'time': [1993, 2660]}, 'edge': {'target': [], 'time': []}}, 'mouseover': {'state': {'target': [], 'time': []}, 'edge': {'target': [], 'time': []}}, 'mouseout': {'state': {'target': [], 'time': []}, 'edge': {'target': [], 'time': []}}}",9.11,9586.0,0
20,mouselab-mdp,23,436349,-22.0,"[2642, 610, 191]",[],"['', -4, 4, 48, 48, -4, -4, 24, 48, -4, -8, -48, -24]",1.0106246541947454e+17,test,20.0,47.0,"[None, None, None]","[-4, 4, 48]","['0', '0', '1', '2', '3']","['up', 'up', 'right']","[3875, 5010, 5718]","{'click': {'state': {'target': ['3'], 'time': [2501]}, 'edge': {'target': [], 'time': []}}, 'mouseover': {'state': {'target': [], 'time': []}, 'edge': {'target': [], 'time': []}}, 'mouseout': {'state': {'target': [], 'time': []}, 'edge': {'target': [], 'time': []}}}",11.24,12091.0,0
21,mouselab-mdp,24,448176,-23.0,"[6063, 665, 153]",[],"['', -2, 8, 24, 48, 2, 4, -24, 24, 4, 8, 48, 24]",2.790125680448452e+18,test,21.0,55.0,"[None, None, None]","[4, 8, 48]","['0', '0', '9', '10', '11']","['left', 'left', 'up']","[7447, 8650, 9329]","{'click': {'state': {'target': ['3', '7', '8', '12', '11'], 'time': [2390, 3082, 3778, 4812, 5664]}, 'edge': {'target': [], 'time': []}}, 'mouseover': {'state': {'target': [], 'time': []}, 'edge': {'target': [], 'time': []}}, 'mouseout': {'state': {'target': [], 'time': []}, 'edge': {'target': [], 'time': []}}}",9.85,10773.0,0
22,mouselab-mdp,25,467775,-24.0,"[14961, 42, 35]",[],"['', -2, 4, -24, 24, -4, 8, -24, -48, -4, -8, 24, 24]",3.0235896747776123e+18,test,22.0,17.0,"[None, None, None]","[-2, 4, 24]","['0', '0', '1', '2', '4']","['up', 'up', 'left']","[16192, 16757, 17315]","{'click': {'state': {'target': ['4', '11', '8', '7', '3', '12', '10', '2', '6'], 'time': [1895, 2853, 3823, 4762, 5533, 7503, 11301, 12480, 13645]}, 'edge': {'target': [], 'time': []}}, 'mouseover': {'state': {'target': [], 'time': []}, 'edge': {'target': [], 'time': []}}, 'mouseout': {'state': {'target': [], 'time': []}, 'edge': {'target': [], 'time': []}}}",17.84,18551.0,0
23,mouselab-mdp,26,482844,-25.0,"[9602, 717, 55]",[],"['', -4, 8, -24, 24, 2, -8, -48, -48, -4, -4, -48, -48]",1.5446418834392468e+18,test,23.0,20.0,"[None, None, None]","[-4, 8, 24]","['0', '0', '1', '2', '4']","['up', 'up', 'left']","[10849, 12085, 12668]","{'click': {'state': {'target': ['3', '4', '11', '12', '8', '7', '2', '1'], 'time': [2700, 3679, 4554, 5330, 6434, 7308, 8752, 9835]}, 'edge': {'target': [], 'time': []}}, 'mouseover': {'state': {'target': [], 'time': []}, 'edge': {'target': [], 'time': []}}, 'mouseout': {'state': {'target': [], 'time': []}, 'edge': {'target': [], 'time': []}}}",13.2,14023.0,0
24,mouselab-mdp,27,497501,-26.0,"[9435, 662, 221]",[],"['', 2, 8, -48, -48, -4, 8, 24, 24, -2, 8, -24, 48]",-3.2359844448818867e+18,test,24.0,50.0,"[None, None, None]","[-2, 8, 48]","['0', '0', '9', '10', '12']","['left', 'left', 'down']","[10358, 11541, 12301]","{'click': {'state': {'target': ['3', '7', '8', '12'], 'time': [3039, 5203, 6206, 8484]}, 'edge': {'target': [], 'time': []}}, 'mouseover': {'state': {'target': [], 'time': []}, 'edge': {'target': [], 'time': []}}, 'mouseout': {'state': {'target': [], 'time': []}, 'edge': {'target': [], 'time': []}}}",12.82,13610.0,0
25,mouselab-mdp,28,509418,-27.0,"[5509, 494, 239]",[],"['', -4, -8, -48, 24, 2, -8, -48, 48, 2, -8, -24, 24]",-3.537338363954668e+18,test,25.0,38.0,"[None, None, None]","[2, -8, 48]","['0', '0', '5', '6', '8']","['right', 'right', 'down']","[6702, 7728, 8501]","{'click': {'state': {'target': ['4', '11', '12', '8'], 'time': [2403, 3182, 4148, 4920]}, 'edge': {'target': [], 'time': []}}, 'mouseover': {'state': {'target': [], 'time': []}, 'edge': {'target': [], 'time': []}}, 'mouseout': {'state': {'target': [], 'time': []}, 'edge': {'target': [], 'time': []}}}",10.2,10853.0,0
26,mouselab-mdp,29,523116,-28.0,"[2751, 574, 192]",[],"['', 4, -8, 48, 24, -2, -4, 24, -24, 4, -4, 48, 48]",-8.930756420240891e+18,test,26.0,47.0,"[None, None, None]","[4, -4, 48]","['0', '0', '9', '10', '11']","['left', 'left', 'up']","[3837, 4939, 5653]","{'click': {'state': {'target': ['11'], 'time': [2380]}, 'edge': {'target': [], 'time': []}}, 'mouseover': {'state': {'target': [], 'time': []}, 'edge': {'target': [], 'time': []}}, 'mouseout': {'state': {'target': [], 'time': []}, 'edge': {'target': [], 'time': []}}}",11.1,12615.0,0
27,mouselab-mdp,30,538023,-29.0,"[9327, 526, 222]",[],"['', 2, -4, -48, 48, -4, -8, -24, -24, -4, 4, -48, 24]",-6.157917720371e+18,test,27.0,40.0,"[None, None, None]","[2, -4, 48]","['0', '0', '1', '2', '4']","['up', 'up', 'left']","[10871, 11921, 12662]","{'click': {'state': {'target': ['11', '12', '8', '7', '3', '4'], 'time': [2892, 3708, 4783, 5594, 6375, 9466]}, 'edge': {'target': [], 'time': []}}, 'mouseover': {'state': {'target': [], 'time': []}, 'edge': {'target': [], 'time': []}}, 'mouseout': {'state': {'target': [], 'time': []}, 'edge': {'target': [], 'time': []}}}",13.19,13843.0,0
28,mouselab-mdp,31,549964,-30.0,"[6474, 558, 175]",[],"['', -2, 8, 24, 24, -2, 4, -24, -48, 2, -4, 24, 48]",6.610219811563799e+18,test,28.0,42.0,"[None, None, None]","[2, -4, 48]","['0', '0', '9', '10', '12']","['left', 'left', 'down']","[7615, 8693, 9389]","{'click': {'state': {'target': ['3', '4', '11', '12'], 'time': [3239, 4467, 5379, 6256]}, 'edge': {'target': [], 'time': []}}, 'mouseover': {'state': {'target': [], 'time': []}, 'edge': {'target': [], 'time': []}}, 'mouseout': {'state': {'target': [], 'time': []}, 'edge': {'target': [], 'time': []}}}",9.91,10882.0,0
29,mouselab-mdp,32,559771,-31.0,"[2290, 451, 223]",[],"['', -4, 8, -48, 48, 2, -4, 48, -48, 2, -8, 24, -48]",5.258592950055133e+18,test,29.0,45.0,"[None, None, None]","[2, -4, 48]","['0', '0', '5', '6', '7']","['right', 'right', 'up']","[3475, 4461, 5211]","{'click': {'state': {'target': ['7'], 'time': [2145]}, 'edge': {'target': [], 'time': []}}, 'mouseover': {'state': {'target': [], 'time': []}, 'edge': {'target': [], 'time': []}}, 'mouseout': {'state': {'target': [], 'time': []}, 'edge': {'target': [], 'time': []}}}",8.19,8757.0,0
66,mouselab-mdp,11,877463,-2.0,"[3076, 1001, 1245]",[],"['', 4, -4, 24, 24, 4, 4, 48, -48, 4, -8, -24, 48]",8.695590532405199e+18,test,0.0,24.0,"[None, None, None]","[4, -4, 24]","['0', '0', '1', '2', '3']","['up', 'up', 'right']","[46428, 47947, 49706]","{'click': {'state': {'target': [], 'time': []}, 'edge': {'target': [], 'time': []}}, 'mouseover': {'state': {'target': [], 'time': []}, 'edge': {'target': [], 'time': []}}, 'mouseout': {'state': {'target': [], 'time': []}, 'edge': {'target': [], 'time': []}}}",51.35,53819.0,1
67,mouselab-mdp,12,890888,-3.0,"[2159, 669, 844]",[],"['', 2, -4, -24, -48, 4, -8, 48, -48, 2, -8, 48, -48]",2.735284467270542e+18,test,1.0,44.0,"[None, None, None]","[4, -8, 48]","['0', '0', '5', '6', '7']","['right', 'right', 'up']","[5547, 6731, 8091]","{'click': {'state': {'target': [], 'time': []}, 'edge': {'target': [], 'time': []}}, 'mouseover': {'state': {'target': [], 'time': []}, 'edge': {'target': [], 'time': []}}, 'mouseout': {'state': {'target': [], 'time': []}, 'edge': {'target': [], 'time': []}}}",11.39,12380.0,1
68,mouselab-mdp,13,904999,-4.0,"[1399, 674, 899]",[],"['', -2, 4, 24, 24, 4, 8, -48, 24, -2, 8, -48, -24]",-9.08425462156937e+18,test,2.0,-42.0,"[None, None, None]","[-2, 8, -48]","['0', '0', '9', '10', '11']","['left', 'left', 'up']","[4404, 5588, 6996]","{'click': {'state': {'target': [], 'time': []}, 'edge': {'target': [], 'time': []}}, 'mouseover': {'state': {'target': [], 'time': []}, 'edge': {'target': [], 'time': []}}, 'mouseout': {'state': {'target': [], 'time': []}, 'edge': {'target': [], 'time': []}}}",12.0,13076.0,1
69,mouselab-mdp,14,916759,-5.0,"[2054, 541, 659]",[],"['', -2, -8, 24, 24, -2, -8, 24, -24, 4, -4, 24, -48]",7.419235085028047e+18,test,3.0,14.0,"[None, None, None]","[-2, -8, 24]","['0', '0', '1', '2', '4']","['up', 'up', 'left']","[4458, 5514, 6681]","{'click': {'state': {'target': [], 'time': []}, 'edge': {'target': [], 'time': []}}, 'mouseover': {'state': {'target': [], 'time': []}, 'edge': {'target': [], 'time': []}}, 'mouseout': {'state': {'target': [], 'time': []}, 'edge': {'target': [], 'time': []}}}",9.4,10729.0,1
70,mouselab-mdp,15,934471,-6.0,"[6082, 1865, 1929]",[],"['', -4, -4, 48, -48, -2, -8, 48, 48, -4, -4, -48, 48]",7.16068933233386e+18,test,4.0,38.0,"[None, None, None]","[-2, -8, 48]","['0', '0', '5', '6', '7']","['right', 'right', 'up']","[8804, 11187, 13634]","{'click': {'state': {'target': [], 'time': []}, 'edge': {'target': [], 'time': []}}, 'mouseover': {'state': {'target': [], 'time': []}, 'edge': {'target': [], 'time': []}}, 'mouseout': {'state': {'target': [], 'time': []}, 'edge': {'target': [], 'time': []}}}",14.15,16674.0,1
71,mouselab-mdp,16,953767,-7.0,"[5887, 2860, 3844]",[],"['', 2, 8, -48, -48, 4, 4, -48, 48, 4, 8, 24, -48]",2.59484151301768e+18,test,5.0,-38.0,"[None, None, None]","[2, 8, -48]","['0', '0', '1', '2', '4']","['up', 'up', 'left']","[7878, 11254, 15622]","{'click': {'state': {'target': [], 'time': []}, 'edge': {'target': [], 'time': []}}, 'mouseover': {'state': {'target': [], 'time': []}, 'edge': {'target': [], 'time': []}}, 'mouseout': {'state': {'target': [], 'time': []}, 'edge': {'target': [], 'time': []}}}",16.14,18261.0,1
72,mouselab-mdp,17,970632,-8.0,"[1257, 391, 660]",[],"['', 2, -4, 48, -24, -2, 4, 48, -48, 2, 8, -48, 24]",-3.024950732778212e+17,test,6.0,50.0,"[None, None, None]","[-2, 4, 48]","['0', '0', '5', '6', '7']","['right', 'right', 'up']","[9126, 10038, 11206]","{'click': {'state': {'target': [], 'time': []}, 'edge': {'target': [], 'time': []}}, 'mouseover': {'state': {'target': [], 'time': []}, 'edge': {'target': [], 'time': []}}, 'mouseout': {'state': {'target': [], 'time': []}, 'edge': {'target': [], 'time': []}}}",14.87,15830.0,1
73,mouselab-mdp,18,986281,-9.0,"[1386, 439, 610]",[],"['', -2, 8, 24, -48, -4, 4, -48, -48, -4, 8, 24, 48]",6.73604779986745e+18,test,7.0,28.0,"[None, None, None]","[-4, 8, 24]","['0', '0', '9', '10', '11']","['left', 'left', 'up']","[8277, 9237, 10357]","{'click': {'state': {'target': [], 'time': []}, 'edge': {'target': [], 'time': []}}, 'mouseover': {'state': {'target': [], 'time': []}, 'edge': {'target': [], 'time': []}}, 'mouseout': {'state': {'target': [], 'time': []}, 'edge': {'target': [], 'time': []}}}",13.89,14613.0,1
74,mouselab-mdp,19,1009353,-10.0,"[1715, 5196, 4856]",[],"['', 4, 8, -48, -48, -4, 8, -48, -24, 4, 4, 24, -24]",5.673770806327289e+18,test,8.0,-36.0,"[None, None, None]","[4, 8, -48]","['0', '0', '1', '2', '4']","['up', 'up', 'left']","[5333, 11045, 16421]","{'click': {'state': {'target': [], 'time': []}, 'edge': {'target': [], 'time': []}}, 'mouseover': {'state': {'target': [], 'time': []}, 'edge': {'target': [], 'time': []}}, 'mouseout': {'state': {'target': [], 'time': []}, 'edge': {'target': [], 'time': []}}}",16.93,22036.0,1
75,mouselab-mdp,20,1022378,-11.0,"[1438, 578, 742]",[],"['', -4, -4, -24, 24, -4, -8, -48, -48, 2, -4, -24, 24]",-5.712514638697656e+18,test,9.0,-60.0,"[None, None, None]","[-4, -8, -48]","['0', '0', '5', '6', '7']","['right', 'right', 'up']","[3346, 4434, 5698]","{'click': {'state': {'target': [], 'time': []}, 'edge': {'target': [], 'time': []}}, 'mouseover': {'state': {'target': [], 'time': []}, 'edge': {'target': [], 'time': []}}, 'mouseout': {'state': {'target': [], 'time': []}, 'edge': {'target': [], 'time': []}}}",10.91,11970.0,1
76,mouselab-mdp,21,1034459,-12.0,"[1435, 100, 108]",[],"['', 2, 4, 24, 48, 2, -4, -24, -48, -2, -8, 48, -48]",-7.082365920985033e+18,test,10.0,38.0,"[None, None, None]","[-2, -8, 48]","['0', '0', '9', '10', '11']","['left', 'left', 'up']","[3094, 3702, 4327]","{'click': {'state': {'target': [], 'time': []}, 'edge': {'target': [], 'time': []}}, 'mouseover': {'state': {'target': [], 'time': []}, 'edge': {'target': [], 'time': []}}, 'mouseout': {'state': {'target': [], 'time': []}, 'edge': {'target': [], 'time': []}}}",9.66,11046.0,1
77,mouselab-mdp,22,1045579,-13.0,"[829, 63, 281]",[],"['', -2, 4, -24, 48, -2, 8, 48, 48, -2, -8, -48, -24]",-8.320322614546437e+17,test,11.0,54.0,"[None, None, None]","[-2, 8, 48]","['0', '0', '5', '6', '7']","['right', 'right', 'up']","[2342, 2918, 3717]","{'click': {'state': {'target': [], 'time': []}, 'edge': {'target': [], 'time': []}}, 'mouseover': {'state': {'target': [], 'time': []}, 'edge': {'target': [], 'time': []}}, 'mouseout': {'state': {'target': [], 'time': []}, 'edge': {'target': [], 'time': []}}}",9.51,10086.0,1
78,mouselab-mdp,23,1057212,-14.0,"[817, 56, 113]",[],"['', 2, -4, -48, -24, -2, -4, 48, -24, 4, 4, 48, -24]",7.520829653297501e+18,test,12.0,-26.0,"[None, None, None]","[2, -4, -24]","['0', '0', '1', '2', '4']","['up', 'up', 'left']","[2644, 3220, 3844]","{'click': {'state': {'target': [], 'time': []}, 'edge': {'target': [], 'time': []}}, 'mouseover': {'state': {'target': [], 'time': []}, 'edge': {'target': [], 'time': []}}, 'mouseout': {'state': {'target': [], 'time': []}, 'edge': {'target': [], 'time': []}}}",9.83,10597.0,1
79,mouselab-mdp,24,1070077,-15.0,"[1297, 111, 213]",[],"['', -4, -4, -24, 24, -2, 4, 24, 24, 2, -8, 48, 48]",-3.858448030437114e+18,test,13.0,26.0,"[None, None, None]","[-2, 4, 24]","['0', '0', '5', '6', '7']","['right', 'right', 'up']","[3667, 4292, 5028]","{'click': {'state': {'target': [], 'time': []}, 'edge': {'target': [], 'time': []}}, 'mouseover': {'state': {'target': [], 'time': []}, 'edge': {'target': [], 'time': []}}, 'mouseout': {'state': {'target': [], 'time': []}, 'edge': {'target': [], 'time': []}}}",11.37,11828.0,1
80,mouselab-mdp,25,1084493,-16.0,"[1040, 147, 615]",[],"['', -2, -8, 48, 24, 4, 4, 48, 24, 2, -8, -24, -48]",-6.480731593057875e+18,test,14.0,38.0,"[None, None, None]","[-2, -8, 48]","['0', '0', '1', '2', '3']","['up', 'up', 'right']","[2278, 2934, 4071]","{'click': {'state': {'target': [], 'time': []}, 'edge': {'target': [], 'time': []}}, 'mouseover': {'state': {'target': [], 'time': []}, 'edge': {'target': [], 'time': []}}, 'mouseout': {'state': {'target': [], 'time': []}, 'edge': {'target': [], 'time': []}}}",10.24,13383.0,1
81,mouselab-mdp,26,1104333,-17.0,"[6220, 45, 261]",[],"['', -4, -8, -48, 24, 2, -8, -48, 48, 2, -8, -24, 24]",-3.537338363954668e+18,test,15.0,-54.0,"[None, None, None]","[2, -8, -48]","['0', '0', '5', '6', '7']","['right', 'right', 'up']","[14496, 15056, 15840]","{'click': {'state': {'target': [], 'time': []}, 'edge': {'target': [], 'time': []}}, 'mouseover': {'state': {'target': [], 'time': []}, 'edge': {'target': [], 'time': []}}, 'mouseout': {'state': {'target': [], 'time': []}, 'edge': {'target': [], 'time': []}}}",17.28,18799.0,1
82,mouselab-mdp,27,1116686,-18.0,"[1169, 132, 507]",[],"['', 2, 4, -48, 24, -4, 8, 24, -48, 4, -8, 48, 24]",8.563081952235477e+18,test,16.0,44.0,"[None, None, None]","[4, -8, 48]","['0', '0', '9', '10', '11']","['left', 'left', 'up']","[2439, 3094, 4118]","{'click': {'state': {'target': [], 'time': []}, 'edge': {'target': [], 'time': []}}, 'mouseover': {'state': {'target': [], 'time': []}, 'edge': {'target': [], 'time': []}}, 'mouseout': {'state': {'target': [], 'time': []}, 'edge': {'target': [], 'time': []}}}",10.27,11318.0,1
83,mouselab-mdp,28,1128077,-19.0,"[1280, 133, 573]",[],"['', -2, 4, 24, 24, -4, 8, 48, 24, -4, 8, -48, -24]",-3.127342074357005e+18,test,17.0,52.0,"[None, None, None]","[-4, 8, 48]","['0', '0', '5', '6', '7']","['right', 'right', 'up']","[2886, 3543, 4630]","{'click': {'state': {'target': [], 'time': []}, 'edge': {'target': [], 'time': []}}, 'mouseover': {'state': {'target': [], 'time': []}, 'edge': {'target': [], 'time': []}}, 'mouseout': {'state': {'target': [], 'time': []}, 'edge': {'target': [], 'time': []}}}",9.61,10358.0,1
84,mouselab-mdp,29,1140766,-20.0,"[1527, 192, 277]",[],"['', -2, 8, -24, 48, 2, 4, -48, 48, -2, 4, -24, -48]",-6.593666887814383e+18,test,18.0,-22.0,"[None, None, None]","[-2, 4, -24]","['0', '0', '9', '10', '11']","['left', 'left', 'up']","[4103, 4807, 5591]","{'click': {'state': {'target': [], 'time': []}, 'edge': {'target': [], 'time': []}}, 'mouseover': {'state': {'target': [], 'time': []}, 'edge': {'target': [], 'time': []}}, 'mouseout': {'state': {'target': [], 'time': []}, 'edge': {'target': [], 'time': []}}}",10.58,11655.0,1
85,mouselab-mdp,30,1153567,-21.0,"[2190, 191, 724]",[],"['', -2, 4, -24, 48, -2, 4, -24, 48, 4, -8, 24, 48]",3.364858280464458e+17,test,19.0,-22.0,"[None, None, None]","[-2, 4, -24]","['0', '0', '1', '2', '3']","['up', 'up', 'right']","[5026, 5730, 6962]","{'click': {'state': {'target': [], 'time': []}, 'edge': {'target': [], 'time': []}}, 'mouseover': {'state': {'target': [], 'time': []}, 'edge': {'target': [], 'time': []}}, 'mouseout': {'state': {'target': [], 'time': []}, 'edge': {'target': [], 'time': []}}}",10.84,11763.0,1
86,mouselab-mdp,31,1168096,-22.0,"[1541, 245, 423]",[],"['', -2, 8, -24, -24, -2, 4, -48, 24, -4, -8, 48, -48]",5.44134319392284e+18,test,20.0,-46.0,"[None, None, None]","[-2, 4, -48]","['0', '0', '5', '6', '7']","['right', 'right', 'up']","[6103, 6870, 7814]","{'click': {'state': {'target': [], 'time': []}, 'edge': {'target': [], 'time': []}}, 'mouseover': {'state': {'target': [], 'time': []}, 'edge': {'target': [], 'time': []}}, 'mouseout': {'state': {'target': [], 'time': []}, 'edge': {'target': [], 'time': []}}}",12.56,13495.0,1
87,mouselab-mdp,32,1181680,-23.0,"[1805, 177, 230]",[],"['', -4, 4, -24, 48, -4, -8, -24, 48, -4, 8, -24, -48]",-5.433328656123216e+18,test,21.0,-24.0,"[None, None, None]","[-4, 4, -24]","['0', '0', '1', '2', '3']","['up', 'up', 'right']","[3319, 4007, 4759]","{'click': {'state': {'target': [], 'time': []}, 'edge': {'target': [], 'time': []}}, 'mouseover': {'state': {'target': [], 'time': []}, 'edge': {'target': [], 'time': []}}, 'mouseout': {'state': {'target': [], 'time': []}, 'edge': {'target': [], 'time': []}}}",10.52,12552.0,1
88,mouselab-mdp,33,1195329,-24.0,"[943, 222, 337]",[],"['', 2, 8, -48, 48, 4, 4, -24, 48, -4, -4, 48, -24]",-9.094639660769571e+18,test,22.0,58.0,"[None, None, None]","[2, 8, 48]","['0', '0', '1', '2', '4']","['up', 'up', 'left']","[1817, 2554, 3402]","{'click': {'state': {'target': [], 'time': []}, 'edge': {'target': [], 'time': []}}, 'mouseover': {'state': {'target': [], 'time': []}, 'edge': {'target': [], 'time': []}}, 'mouseout': {'state': {'target': [], 'time': []}, 'edge': {'target': [], 'time': []}}}",10.87,12618.0,1
89,mouselab-mdp,34,1208353,-25.0,"[909, 335, 349]",[],"['', -2, 8, 48, 24, 4, 8, 48, 48, -4, 4, 24, 24]",8.067169575405887e+17,test,23.0,30.0,"[None, None, None]","[-2, 8, 24]","['0', '0', '1', '2', '4']","['up', 'up', 'left']","[2199, 3047, 3911]","{'click': {'state': {'target': [], 'time': []}, 'edge': {'target': [], 'time': []}}, 'mouseover': {'state': {'target': [], 'time': []}, 'edge': {'target': [], 'time': []}}, 'mouseout': {'state': {'target': [], 'time': []}, 'edge': {'target': [], 'time': []}}}",11.29,11991.0,1
90,mouselab-mdp,35,1220370,-26.0,"[928, 135, 141]",[],"['', -2, 4, 24, -48, 4, 8, 48, -24, 2, -4, 24, 48]",2.911385690292516e+18,test,24.0,-46.0,"[None, None, None]","[-2, 4, -48]","['0', '0', '1', '2', '4']","['up', 'up', 'left']","[2168, 2824, 3480]","{'click': {'state': {'target': [], 'time': []}, 'edge': {'target': [], 'time': []}}, 'mouseover': {'state': {'target': [], 'time': []}, 'edge': {'target': [], 'time': []}}, 'mouseout': {'state': {'target': [], 'time': []}, 'edge': {'target': [], 'time': []}}}",10.24,10985.0,1
91,mouselab-mdp,36,1233186,-27.0,"[855, 250, 332]",[],"['', -4, 8, 48, -24, -2, 8, -24, -48, 4, 8, -24, 48]",-3.254006420049747e+18,test,25.0,52.0,"[None, None, None]","[-4, 8, 48]","['0', '0', '1', '2', '3']","['up', 'up', 'right']","[2887, 3655, 4503]","{'click': {'state': {'target': [], 'time': []}, 'edge': {'target': [], 'time': []}}, 'mouseover': {'state': {'target': [], 'time': []}, 'edge': {'target': [], 'time': []}}, 'mouseout': {'state': {'target': [], 'time': []}, 'edge': {'target': [], 'time': []}}}",11.03,11783.0,1
92,mouselab-mdp,37,1248353,-28.0,"[1449, 833, 381]",[],"['', -2, -4, 48, -24, 4, -8, 48, -48, 2, -8, 24, -48]",-8.867212192286323e+18,test,26.0,42.0,"[None, None, None]","[-2, -4, 48]","['0', '0', '1', '2', '3']","['up', 'up', 'right']","[5509, 6853, 7749]","{'click': {'state': {'target': [], 'time': []}, 'edge': {'target': [], 'time': []}}, 'mouseover': {'state': {'target': [], 'time': []}, 'edge': {'target': [], 'time': []}}, 'mouseout': {'state': {'target': [], 'time': []}, 'edge': {'target': [], 'time': []}}}",13.06,14133.0,1
93,mouselab-mdp,38,1261778,-29.0,"[1179, 604, 594]",[],"['', -2, 8, 24, 48, 2, -4, 48, -48, 2, 8, 24, -48]",4.460497769895528e+18,test,27.0,30.0,"[None, None, None]","[-2, 8, 24]","['0', '0', '1', '2', '3']","['up', 'up', 'right']","[3303, 4423, 5528]","{'click': {'state': {'target': [], 'time': []}, 'edge': {'target': [], 'time': []}}, 'mouseover': {'state': {'target': [], 'time': []}, 'edge': {'target': [], 'time': []}}, 'mouseout': {'state': {'target': [], 'time': []}, 'edge': {'target': [], 'time': []}}}",9.12,12392.0,1
94,mouselab-mdp,39,1277795,-30.0,"[3954, 177, 406]",[],"['', -4, 8, 24, 24, -2, -8, -48, -24, -4, -8, 24, 24]",5.782292848891636e+18,test,28.0,28.0,"[None, None, None]","[-4, 8, 24]","['0', '0', '1', '2', '3']","['up', 'up', 'right']","[6596, 7284, 8212]","{'click': {'state': {'target': [], 'time': []}, 'edge': {'target': [], 'time': []}}, 'mouseover': {'state': {'target': [], 'time': []}, 'edge': {'target': [], 'time': []}}, 'mouseout': {'state': {'target': [], 'time': []}, 'edge': {'target': [], 'time': []}}}",12.64,14981.0,1
95,mouselab-mdp,40,1296995,-31.0,"[7085, 235, 303]",[],"['', -2, 4, 24, -24, 4, -8, 24, -24, 4, -4, 48, -24]",6.242434190208863e+17,test,29.0,-22.0,"[None, None, None]","[-2, 4, -24]","['0', '0', '1', '2', '4']","['up', 'up', 'left']","[9556, 10307, 11124]","{'click': {'state': {'target': [], 'time': []}, 'edge': {'target': [], 'time': []}}, 'mouseover': {'state': {'target': [], 'time': []}, 'edge': {'target': [], 'time': []}}, 'mouseout': {'state': {'target': [], 'time': []}, 'edge': {'target': [], 'time': []}}}",11.64,18164.0,1
132,mouselab-mdp,5,138438,-2.0,"[11471, 684, 1212]",[],"['', -2, 8, 24, -48, 4, 4, -48, -24, 2, 8, -48, 48]",5.188170829716248e+18,test,0.0,-43.0,"[None, None, None]","[2, 8, -48]","['0', '0', '9', '10', '11']","['left', 'left', 'up']","[13323, 14506, 16218]","{'click': {'state': {'target': ['5', '9', '1', '6', '10'], 'time': [5734, 7638, 8733, 10036, 10788]}, 'edge': {'target': [], 'time': []}}, 'mouseover': {'state': {'target': [], 'time': []}, 'edge': {'target': [], 'time': []}}, 'mouseout': {'state': {'target': [], 'time': []}, 'edge': {'target': [], 'time': []}}}",16.73,18586.0,2
133,mouselab-mdp,6,156206,-3.0,"[12061, 122, 152]",[],"['', -4, -4, 48, -48, -2, -8, 48, 48, -4, -4, -48, 48]",7.16068933233386e+18,test,1.0,33.0,"[None, None, None]","[-4, -4, 48]","['0', '0', '1', '2', '3']","['up', 'up', 'right']","[13450, 14074, 14722]","{'click': {'state': {'target': ['5', '6', '9', '1', '10', '2', '4'], 'time': [2220, 2749, 5492, 6332, 8036, 8908, 12100]}, 'edge': {'target': [], 'time': []}}, 'mouseover': {'state': {'target': [], 'time': []}, 'edge': {'target': [], 'time': []}}, 'mouseout': {'state': {'target': [], 'time': []}, 'edge': {'target': [], 'time': []}}}",15.22,16713.0,2
134,mouselab-mdp,7,171838,-4.0,"[8991, 89, 103]",[],"['', -2, -8, -24, 48, 4, 8, 48, -48, -4, -8, -24, -48]",-1.9664322346226647e+18,test,2.0,51.0,"[None, None, None]","[4, 8, 48]","['0', '0', '5', '6', '7']","['right', 'right', 'up']","[11528, 12127, 12727]","{'click': {'state': {'target': ['5', '6', '1', '9', '10', '11', '12', '8', '7'], 'time': [3402, 4817, 5377, 6666, 7777, 8273, 9169, 10106, 10867]}, 'edge': {'target': [], 'time': []}}, 'mouseover': {'state': {'target': [], 'time': []}, 'edge': {'target': [], 'time': []}}, 'mouseout': {'state': {'target': [], 'time': []}, 'edge': {'target': [], 'time': []}}}",13.24,14583.0,2
135,mouselab-mdp,8,182119,-5.0,"[4423, 104, 167]",[],"['', -4, 8, 24, 24, -2, -8, -48, -24, -4, -8, 24, 24]",5.782292848891636e+18,test,3.0,7.0,"[None, None, None]","[-4, -8, 24]","['0', '0', '9', '10', '11']","['left', 'left', 'up']","[5101, 5701, 6365]","{'click': {'state': {'target': ['7', '3', '4', '12', '11'], 'time': [1432, 2208, 2880, 3704, 4384]}, 'edge': {'target': [], 'time': []}}, 'mouseover': {'state': {'target': [], 'time': []}, 'edge': {'target': [], 'time': []}}, 'mouseout': {'state': {'target': [], 'time': []}, 'edge': {'target': [], 'time': []}}}",8.68,9229.0,2
136,mouselab-mdp,9,193751,-6.0,"[1916, 199, 121]",[],"['', 2, 4, -24, 48, 2, -8, -24, 48, 4, 4, 24, 24]",-1.6616713928916293e+18,test,4.0,30.0,"[None, None, None]","[4, 4, 24]","['0', '0', '9', '10', '12']","['left', 'left', 'down']","[2467, 3155, 3795]","{'click': {'state': {'target': ['11', '12'], 'time': [1326, 1926]}, 'edge': {'target': [], 'time': []}}, 'mouseover': {'state': {'target': [], 'time': []}, 'edge': {'target': [], 'time': []}}, 'mouseout': {'state': {'target': [], 'time': []}, 'edge': {'target': [], 'time': []}}}",9.55,10579.0,2
137,mouselab-mdp,10,206430,-7.0,"[3772, 59, 101]",[],"['', -4, -4, 24, -24, -4, 4, 24, 24, 4, 4, 48, -48]",-7.890144164692454e+18,test,5.0,22.0,"[None, None, None]","[-4, 4, 24]","['0', '0', '5', '6', '7']","['right', 'right', 'up']","[4757, 5317, 5909]","{'click': {'state': {'target': ['8', '7'], 'time': [1720, 3935]}, 'edge': {'target': [], 'time': []}}, 'mouseover': {'state': {'target': [], 'time': []}, 'edge': {'target': [], 'time': []}}, 'mouseout': {'state': {'target': [], 'time': []}, 'edge': {'target': [], 'time': []}}}",9.99,11629.0,2
138,mouselab-mdp,11,219255,-8.0,"[2711, 538, 375]",[],"['', -4, -4, -24, 24, -2, 4, 24, 24, 2, -8, 48, 48]",-3.858448030437114e+18,test,6.0,23.0,"[None, None, None]","[-2, 4, 24]","['0', '0', '5', '6', '7']","['right', 'right', 'up']","[4008, 5064, 5936]","{'click': {'state': {'target': ['5', '6', '7'], 'time': [2011, 2594, 3098]}, 'edge': {'target': [], 'time': []}}, 'mouseover': {'state': {'target': [], 'time': []}, 'edge': {'target': [], 'time': []}}, 'mouseout': {'state': {'target': [], 'time': []}, 'edge': {'target': [], 'time': []}}}",11.3,11777.0,2
139,mouselab-mdp,12,231367,-9.0,"[1982, 138, 623]",[],"['', -2, 4, -24, 24, -4, 8, -24, -48, -4, -8, 24, 24]",3.0235896747776123e+18,test,7.0,-47.0,"[None, None, None]","[-4, 8, -48]","['0', '0', '5', '6', '8']","['right', 'right', 'down']","[2319, 2965, 4085]","{'click': {'state': {'target': ['5', '6', '7'], 'time': [1119, 1615, 2023]}, 'edge': {'target': [], 'time': []}}, 'mouseover': {'state': {'target': [], 'time': []}, 'edge': {'target': [], 'time': []}}, 'mouseout': {'state': {'target': [], 'time': []}, 'edge': {'target': [], 'time': []}}}",10.34,11061.0,2
140,mouselab-mdp,13,245079,-10.0,"[2598, 11, 6]",[],"['', -2, 8, 24, 48, 2, -4, 48, -48, 2, 8, 24, -48]",4.460497769895528e+18,test,8.0,51.0,"[None, None, None]","[-2, 8, 48]","['0', '0', '1', '2', '4']","['up', 'up', 'left']","[3242, 3760, 4272]","{'click': {'state': {'target': ['12', '11', '4'], 'time': [1179, 1690, 2594]}, 'edge': {'target': [], 'time': []}}, 'mouseover': {'state': {'target': [], 'time': []}, 'edge': {'target': [], 'time': []}}, 'mouseout': {'state': {'target': [], 'time': []}, 'edge': {'target': [], 'time': []}}}",9.64,12665.0,2
141,mouselab-mdp,14,255494,-11.0,"[1110, 69, 160]",[],"['', 2, 8, 48, 48, -4, -8, 24, 48, 4, 4, 48, 24]",4.610111718856282e+17,test,9.0,57.0,"[None, None, None]","[2, 8, 48]","['0', '0', '1', '2', '3']","['up', 'up', 'right']","[2318, 2902, 3558]","{'click': {'state': {'target': ['3'], 'time': [1856]}, 'edge': {'target': [], 'time': []}}, 'mouseover': {'state': {'target': [], 'time': []}, 'edge': {'target': [], 'time': []}}, 'mouseout': {'state': {'target': [], 'time': []}, 'edge': {'target': [], 'time': []}}}",9.21,9366.0,2
142,mouselab-mdp,15,266758,-12.0,"[2672, 454, 78]",[],"['', -2, -4, 48, 24, -2, -4, -48, -24, -4, -4, 24, 48]",-3.177342720159176e+18,test,10.0,40.0,"[None, None, None]","[-2, -4, 48]","['0', '0', '1', '2', '3']","['up', 'up', 'right']","[3835, 4803, 5379]","{'click': {'state': {'target': ['4', '3'], 'time': [2477, 3413]}, 'edge': {'target': [], 'time': []}}, 'mouseover': {'state': {'target': [], 'time': []}, 'edge': {'target': [], 'time': []}}, 'mouseout': {'state': {'target': [], 'time': []}, 'edge': {'target': [], 'time': []}}}",10.16,10219.0,2
143,mouselab-mdp,16,276583,-13.0,"[1223, 115, 34]",[],"['', 4, 4, 48, 24, 4, 8, -24, -48, 2, -4, -48, 24]",-4.3155143929802783e+18,test,11.0,55.0,"[None, None, None]","[4, 4, 48]","['0', '0', '1', '2', '3']","['up', 'up', 'right']","[1819, 2427, 2963]","{'click': {'state': {'target': ['3'], 'time': [1295]}, 'edge': {'target': [], 'time': []}}, 'mouseover': {'state': {'target': [], 'time': []}, 'edge': {'target': [], 'time': []}}, 'mouseout': {'state': {'target': [], 'time': []}, 'edge': {'target': [], 'time': []}}}",8.6,8780.0,2
144,mouselab-mdp,17,286102,-14.0,"[2214, 39, 73]",[],"['', 2, 4, -24, 48, -2, -8, 48, 24, 4, 8, -48, -48]",-2.597539031851428e+18,test,12.0,52.0,"[None, None, None]","[2, 4, 48]","['0', '0', '1', '2', '4']","['up', 'up', 'left']","[2650, 3185, 3769]","{'click': {'state': {'target': ['3', '4'], 'time': [1227, 1731]}, 'edge': {'target': [], 'time': []}}, 'mouseover': {'state': {'target': [], 'time': []}, 'edge': {'target': [], 'time': []}}, 'mouseout': {'state': {'target': [], 'time': []}, 'edge': {'target': [], 'time': []}}}",8.44,8473.0,2
145,mouselab-mdp,18,297824,-15.0,"[1557, 21, 152]",[],"['', -4, -8, 48, -48, -2, -8, 48, 24, -2, 8, 24, -24]",6.221411054408101e+18,test,13.0,34.0,"[None, None, None]","[-4, -8, 48]","['0', '0', '1', '2', '3']","['up', 'up', 'right']","[2334, 2862, 3510]","{'click': {'state': {'target': ['4', '3'], 'time': [1393, 1913]}, 'edge': {'target': [], 'time': []}}, 'mouseover': {'state': {'target': [], 'time': []}, 'edge': {'target': [], 'time': []}}, 'mouseout': {'state': {'target': [], 'time': []}, 'edge': {'target': [], 'time': []}}}",9.78,10680.0,2
146,mouselab-mdp,19,307390,-16.0,"[406, 1645, 357]",[],"['', 4, 8, -48, -48, -4, 8, -48, -24, 4, 4, 24, -24]",5.673770806327289e+18,test,14.0,-36.0,"[None, None, None]","[4, 8, -48]","['0', '0', '1', '2', '3']","['up', 'up', 'right']","[736, 2872, 3720]","{'click': {'state': {'target': [], 'time': []}, 'edge': {'target': [], 'time': []}}, 'mouseover': {'state': {'target': [], 'time': []}, 'edge': {'target': [], 'time': []}}, 'mouseout': {'state': {'target': [], 'time': []}, 'edge': {'target': [], 'time': []}}}",8.33,8520.0,2
147,mouselab-mdp,20,317670,-17.0,"[1873, 3, 156]",[],"['', -4, -4, 48, -24, -4, 4, -48, 48, -2, -8, 24, 48]",5.850565339829589e+18,test,15.0,38.0,"[None, None, None]","[-4, -4, 48]","['0', '0', '1', '2', '3']","['up', 'up', 'right']","[2219, 2725, 3395]","{'click': {'state': {'target': ['4', '3'], 'time': [1030, 1543]}, 'edge': {'target': [], 'time': []}}, 'mouseover': {'state': {'target': [], 'time': []}, 'edge': {'target': [], 'time': []}}, 'mouseout': {'state': {'target': [], 'time': []}, 'edge': {'target': [], 'time': []}}}",8.35,9235.0,2
148,mouselab-mdp,21,327968,-18.0,"[2063, 142, 27]",[],"['', 4, -4, -48, 48, -4, 8, 48, -24, 2, 4, 24, 48]",-8.591125776345142e+18,test,16.0,46.0,"[None, None, None]","[4, -4, 48]","['0', '0', '1', '2', '4']","['up', 'up', 'left']","[2946, 3578, 4098]","{'click': {'state': {'target': ['3', '4'], 'time': [2109, 2580]}, 'edge': {'target': [], 'time': []}}, 'mouseover': {'state': {'target': [], 'time': []}, 'edge': {'target': [], 'time': []}}, 'mouseout': {'state': {'target': [], 'time': []}, 'edge': {'target': [], 'time': []}}}",8.88,9252.0,2
149,mouselab-mdp,22,337718,-19.0,"[1103, 144, 6]",[],"['', -2, 8, 24, 48, 2, 4, -24, 24, 4, 8, 48, 24]",2.790125680448452e+18,test,17.0,53.0,"[None, None, None]","[-2, 8, 48]","['0', '0', '1', '2', '4']","['up', 'up', 'left']","[1385, 2025, 2521]","{'click': {'state': {'target': ['4'], 'time': [955]}, 'edge': {'target': [], 'time': []}}, 'mouseover': {'state': {'target': [], 'time': []}, 'edge': {'target': [], 'time': []}}, 'mouseout': {'state': {'target': [], 'time': []}, 'edge': {'target': [], 'time': []}}}",8.29,8705.0,2
150,mouselab-mdp,23,348997,-20.0,"[990, 119, 85]",[],"['', -2, 8, -24, 48, 2, -4, 48, 24, -2, 8, -24, -24]",7.530597343457169e+17,test,18.0,53.0,"[None, None, None]","[-2, 8, 48]","['0', '0', '1', '2', '4']","['up', 'up', 'left']","[2192, 2808, 3392]","{'click': {'state': {'target': ['4'], 'time': [1850]}, 'edge': {'target': [], 'time': []}}, 'mouseover': {'state': {'target': [], 'time': []}, 'edge': {'target': [], 'time': []}}, 'mouseout': {'state': {'target': [], 'time': []}, 'edge': {'target': [], 'time': []}}}",10.2,10232.0,2
151,mouselab-mdp,24,359789,-21.0,"[430, 66, 101]",[],"['', -4, 8, 48, -48, -4, -4, -48, 48, -2, 8, 24, 48]",-4.689310195682358e+18,test,19.0,52.0,"[None, None, None]","[-4, 8, 48]","['0', '0', '1', '2', '3']","['up', 'up', 'right']","[1317, 1891, 2491]","{'click': {'state': {'target': [], 'time': []}, 'edge': {'target': [], 'time': []}}, 'mouseover': {'state': {'target': [], 'time': []}, 'edge': {'target': [], 'time': []}}, 'mouseout': {'state': {'target': [], 'time': []}, 'edge': {'target': [], 'time': []}}}",8.89,9747.0,2
152,mouselab-mdp,25,370966,-22.0,"[2602, 137, 78]",[],"['', 4, 8, -24, 24, 4, -4, -24, 24, -4, 4, -24, 48]",2.948336531417193e+18,test,20.0,34.0,"[None, None, None]","[4, 8, 24]","['0', '0', '1', '2', '4']","['up', 'up', 'left']","[3091, 3748, 4323]","{'click': {'state': {'target': ['3', '4'], 'time': [1925, 2700]}, 'edge': {'target': [], 'time': []}}, 'mouseover': {'state': {'target': [], 'time': []}, 'edge': {'target': [], 'time': []}}, 'mouseout': {'state': {'target': [], 'time': []}, 'edge': {'target': [], 'time': []}}}",9.49,10131.0,2
153,mouselab-mdp,26,380509,-23.0,"[1114, 118, 20]",[],"['', -4, 4, -24, 48, -4, -8, -24, 48, -4, 8, -24, -48]",-5.433328656123216e+18,test,21.0,47.0,"[None, None, None]","[-4, 4, 48]","['0', '0', '1', '2', '4']","['up', 'up', 'left']","[1569, 2176, 2696]","{'click': {'state': {'target': ['4'], 'time': [1163]}, 'edge': {'target': [], 'time': []}}, 'mouseover': {'state': {'target': [], 'time': []}, 'edge': {'target': [], 'time': []}}, 'mouseout': {'state': {'target': [], 'time': []}, 'edge': {'target': [], 'time': []}}}",8.46,8496.0,2
154,mouselab-mdp,27,390749,-24.0,"[2080, 124, 162]",[],"['', 4, 8, 24, 24, -4, -4, -24, -48, 2, -4, 48, 48]",2.060778120775652e+18,test,22.0,34.0,"[None, None, None]","[4, 8, 24]","['0', '0', '1', '2', '3']","['up', 'up', 'right']","[3176, 3806, 4478]","{'click': {'state': {'target': ['4', '3'], 'time': [1912, 2896]}, 'edge': {'target': [], 'time': []}}, 'mouseover': {'state': {'target': [], 'time': []}, 'edge': {'target': [], 'time': []}}, 'mouseout': {'state': {'target': [], 'time': []}, 'edge': {'target': [], 'time': []}}}",9.1,9198.0,2
155,mouselab-mdp,28,401431,-25.0,"[1966, 148, 81]",[],"['', -2, 8, 24, 48, -2, -8, 48, 48, 2, 4, 24, 48]",1.0137673368414092e+18,test,23.0,52.0,"[None, None, None]","[-2, 8, 48]","['0', '0', '1', '2', '4']","['up', 'up', 'left']","[2525, 3165, 3749]","{'click': {'state': {'target': ['3', '4'], 'time': [1128, 2087]}, 'edge': {'target': [], 'time': []}}, 'mouseover': {'state': {'target': [], 'time': []}, 'edge': {'target': [], 'time': []}}, 'mouseout': {'state': {'target': [], 'time': []}, 'edge': {'target': [], 'time': []}}}",9.56,9639.0,2
156,mouselab-mdp,29,411197,-26.0,"[1128, 109, 6]",[],"['', 2, 8, 48, -24, 2, 8, -24, 24, -4, -4, -48, 24]",-2.4102857850257306e+18,test,24.0,57.0,"[None, None, None]","[2, 8, 48]","['0', '0', '1', '2', '3']","['up', 'up', 'right']","[1495, 2119, 2615]","{'click': {'state': {'target': ['3'], 'time': [1145]}, 'edge': {'target': [], 'time': []}}, 'mouseover': {'state': {'target': [], 'time': []}, 'edge': {'target': [], 'time': []}}, 'mouseout': {'state': {'target': [], 'time': []}, 'edge': {'target': [], 'time': []}}}",8.37,8718.0,2
157,mouselab-mdp,30,421149,-27.0,"[4354, 31, 72]",[],"['', 4, -8, -24, -24, -4, 8, -24, 24, -2, -8, -48, -48]",3.4572940745595366e+18,test,25.0,22.0,"[None, None, None]","[-4, 8, 24]","['0', '0', '5', '6', '8']","['right', 'right', 'down']","[5208, 5735, 6328]","{'click': {'state': {'target': ['3', '4', '12', '11', '7', '8'], 'time': [1459, 2212, 3138, 3658, 4282, 4658]}, 'edge': {'target': [], 'time': []}}, 'mouseover': {'state': {'target': [], 'time': []}, 'edge': {'target': [], 'time': []}}, 'mouseout': {'state': {'target': [], 'time': []}, 'edge': {'target': [], 'time': []}}}",8.86,8903.0,2
158,mouselab-mdp,31,431670,-28.0,"[4188, 102, 94]",[],"['', -4, -4, -24, 24, -4, -8, -48, -48, 2, -4, -24, 24]",-5.712514638697656e+18,test,26.0,16.0,"[None, None, None]","[2, -4, 24]","['0', '0', '9', '10', '12']","['left', 'left', 'down']","[5395, 6000, 6593]","{'click': {'state': {'target': ['4', '3', '8', '7', '12', '11'], 'time': [1892, 2347, 3061, 3387, 4602, 5075]}, 'edge': {'target': [], 'time': []}}, 'mouseover': {'state': {'target': [], 'time': []}, 'edge': {'target': [], 'time': []}}, 'mouseout': {'state': {'target': [], 'time': []}, 'edge': {'target': [], 'time': []}}}",9.21,9472.0,2
159,mouselab-mdp,32,441453,-29.0,"[3253, 522, 3]",[],"['', -2, 4, 24, -48, 4, 8, 48, -24, 2, -4, 24, 48]",2.911385690292516e+18,test,27.0,23.0,"[None, None, None]","[-2, 4, 24]","['0', '0', '1', '2', '3']","['up', 'up', 'right']","[3607, 4631, 5134]","{'click': {'state': {'target': ['4', '3', '7'], 'time': [1538, 2083, 3337]}, 'edge': {'target': [], 'time': []}}, 'mouseover': {'state': {'target': [], 'time': []}, 'edge': {'target': [], 'time': []}}, 'mouseout': {'state': {'target': [], 'time': []}, 'edge': {'target': [], 'time': []}}}",8.36,8742.0,2
160,mouselab-mdp,33,452277,-30.0,"[4476, 18, 164]",[],"['', -4, 4, 24, -24, 4, 4, -48, -48, -4, -4, -48, 24]",3.6473831872521006e+18,test,28.0,20.0,"[None, None, None]","[-4, 4, 24]","['0', '0', '1', '2', '3']","['up', 'up', 'right']","[4983, 5503, 6166]","{'click': {'state': {'target': ['8', '7', '3', '4'], 'time': [2268, 3185, 3913, 4433]}, 'edge': {'target': [], 'time': []}}, 'mouseover': {'state': {'target': [], 'time': []}, 'edge': {'target': [], 'time': []}}, 'mouseout': {'state': {'target': [], 'time': []}, 'edge': {'target': [], 'time': []}}}",9.51,9782.0,2
161,mouselab-mdp,34,463440,-31.0,"[1337, 31, 121]",[],"['', 4, -4, 24, -24, -2, -4, -24, -24, 2, -4, 48, 24]",1.598574912455298e+18,test,29.0,22.0,"[None, None, None]","[4, -4, 24]","['0', '0', '1', '2', '3']","['up', 'up', 'right']","[1764, 2299, 2940]","{'click': {'state': {'target': ['3', '4'], 'time': [910, 1463]}, 'edge': {'target': [], 'time': []}}, 'mouseover': {'state': {'target': [], 'time': []}, 'edge': {'target': [], 'time': []}}, 'mouseout': {'state': {'target': [], 'time': []}, 'edge': {'target': [], 'time': []}}}",9.43,10118.0,2
198,mouselab-mdp,9,251165,-2.0,"[9072, 4083, 6436]",[],"['', -2, 4, -24, 24, -4, 8, -24, -48, -4, -8, 24, 24]",3.0235896747776123e+18,test,0.0,-25.0,"[None, None, None]","[-2, 4, -24]","['0', '0', '1', '2', '3']","['up', 'up', 'right']","[11918, 16493, 23428]","{'click': {'state': {'target': ['5', '1', '9'], 'time': [8538, 9383, 10137]}, 'edge': {'target': [], 'time': []}}, 'mouseover': {'state': {'target': [], 'time': []}, 'edge': {'target': [], 'time': []}}, 'mouseout': {'state': {'target': [], 'time': []}, 'edge': {'target': [], 'time': []}}}",23.93,26004.0,3
199,mouselab-mdp,10,268540,-3.0,"[12375, 235, 101]",[],"['', 2, 8, -48, -48, -4, 8, 24, 24, -2, 8, -24, 48]",-3.2359844448818867e+18,test,1.0,21.0,"[None, None, None]","[-4, 8, 24]","['0', '0', '5', '6', '8']","['right', 'right', 'down']","[13636, 14363, 14963]","{'click': {'state': {'target': ['5', '9', '1', '3', '4', '6', '8'], 'time': [2097, 4589, 6531, 8602, 9420, 11584, 12219]}, 'edge': {'target': [], 'time': []}}, 'mouseover': {'state': {'target': [], 'time': []}, 'edge': {'target': [], 'time': []}}, 'mouseout': {'state': {'target': [], 'time': []}, 'edge': {'target': [], 'time': []}}}",15.46,16347.0,3
200,mouselab-mdp,11,279452,-4.0,"[6089, 84, 4]",[],"['', 2, -4, 48, -24, -2, 4, 48, -48, 2, 8, -48, 24]",-3.024950732778212e+17,test,2.0,40.0,"[None, None, None]","[2, -4, 48]","['0', '0', '1', '2', '3']","['up', 'up', 'right']","[7013, 7589, 8093]","{'click': {'state': {'target': ['5', '9', '1', '3', '4', '2'], 'time': [1490, 2381, 2966, 4273, 4844, 5479]}, 'edge': {'target': [], 'time': []}}, 'mouseover': {'state': {'target': [], 'time': []}, 'edge': {'target': [], 'time': []}}, 'mouseout': {'state': {'target': [], 'time': []}, 'edge': {'target': [], 'time': []}}}",8.93,9885.0,3
201,mouselab-mdp,12,294187,-5.0,"[7710, 2268, 212]",[],"['', 4, 8, -24, 24, 4, -4, -24, 24, -4, 4, -24, 48]",2.948336531417193e+18,test,3.0,30.0,"[None, None, None]","[4, 8, 24]","['0', '0', '1', '2', '4']","['up', 'up', 'left']","[9043, 11811, 12522]","{'click': {'state': {'target': ['5', '1', '9', '3', '4', '2'], 'time': [3950, 4472, 5125, 6262, 6899, 7471]}, 'edge': {'target': [], 'time': []}}, 'mouseover': {'state': {'target': [], 'time': []}, 'edge': {'target': [], 'time': []}}, 'mouseout': {'state': {'target': [], 'time': []}, 'edge': {'target': [], 'time': []}}}",13.03,13706.0,3
202,mouselab-mdp,13,305475,-6.0,"[6807, 155, 106]",[],"['', 2, 4, -48, 24, -4, 8, 24, -48, 4, -8, 48, 24]",8.563081952235477e+18,test,4.0,38.0,"[None, None, None]","[4, -8, 48]","['0', '0', '9', '10', '11']","['left', 'left', 'up']","[7681, 8337, 8937]","{'click': {'state': {'target': ['5', '1', '9', '10', '12', '11'], 'time': [1417, 1877, 2521, 4513, 4944, 6146]}, 'edge': {'target': [], 'time': []}}, 'mouseover': {'state': {'target': [], 'time': []}, 'edge': {'target': [], 'time': []}}, 'mouseout': {'state': {'target': [], 'time': []}, 'edge': {'target': [], 'time': []}}}",9.43,10265.0,3
203,mouselab-mdp,14,317482,-7.0,"[6701, 68, 21]",[],"['', -2, 8, 24, 48, -2, -8, 48, 48, 2, 4, 24, 48]",1.0137673368414092e+18,test,5.0,48.0,"[None, None, None]","[2, 4, 48]","['0', '0', '9', '10', '12']","['left', 'left', 'down']","[7724, 8291, 8812]","{'click': {'state': {'target': ['1', '9', '5', '11', '10', '12'], 'time': [2173, 2638, 3186, 5368, 5682, 6298]}, 'edge': {'target': [], 'time': []}}, 'mouseover': {'state': {'target': [], 'time': []}, 'edge': {'target': [], 'time': []}}, 'mouseout': {'state': {'target': [], 'time': []}, 'edge': {'target': [], 'time': []}}}",10.02,10978.0,3
204,mouselab-mdp,15,327954,-8.0,"[5508, 83, 4]",[],"['', -4, -4, 24, -24, -4, 4, 24, 24, 4, 4, 48, -48]",-7.890144164692454e+18,test,6.0,50.0,"[None, None, None]","[4, 4, 48]","['0', '0', '9', '10', '11']","['left', 'left', 'up']","[6329, 6906, 7426]","{'click': {'state': {'target': ['9', '1', '5', '10', '12', '11'], 'time': [1640, 2104, 2556, 3411, 3789, 4423]}, 'edge': {'target': [], 'time': []}}, 'mouseover': {'state': {'target': [], 'time': []}, 'edge': {'target': [], 'time': []}}, 'mouseout': {'state': {'target': [], 'time': []}, 'edge': {'target': [], 'time': []}}}",8.82,9449.0,3
205,mouselab-mdp,16,338675,-9.0,"[4835, 36, 151]",[],"['', -2, 8, -24, 24, 2, -8, -48, -24, 4, -4, 48, -48]",-6.373051720525899e+18,test,7.0,42.0,"[None, None, None]","[4, -4, 48]","['0', '0', '9', '10', '11']","['left', 'left', 'up']","[6183, 6735, 7399]","{'click': {'state': {'target': ['5', '1', '9', '10', '12', '11'], 'time': [1869, 2284, 2829, 3619, 3983, 4545]}, 'edge': {'target': [], 'time': []}}, 'mouseover': {'state': {'target': [], 'time': []}, 'edge': {'target': [], 'time': []}}, 'mouseout': {'state': {'target': [], 'time': []}, 'edge': {'target': [], 'time': []}}}",9.35,9695.0,3
206,mouselab-mdp,17,353329,-10.0,"[9878, 130, 1128]",[],"['', -4, -8, 48, -48, -2, -8, 48, 24, -2, 8, 24, -24]",6.221411054408101e+18,test,8.0,26.0,"[None, None, None]","[-2, -8, 48]","['0', '0', '5', '6', '7']","['right', 'right', 'up']","[10495, 11127, 12758]","{'click': {'state': {'target': ['5', '1', '9', '10', '12', '11', '6', '8', '7', '3', '2', '4'], 'time': [1106, 1518, 2315, 2867, 3188, 3736, 4445, 4722, 5166, 6910, 8320, 8775]}, 'edge': {'target': [], 'time': []}}, 'mouseover': {'state': {'target': [], 'time': []}, 'edge': {'target': [], 'time': []}}, 'mouseout': {'state': {'target': [], 'time': []}, 'edge': {'target': [], 'time': []}}}",13.25,13630.0,3
207,mouselab-mdp,18,371720,-11.0,"[14275, 90, 67]",[],"['', -2, -8, 24, 24, -2, -8, 24, -24, 4, -4, 24, -48]",7.419235085028047e+18,test,9.0,12.0,"[None, None, None]","[4, -4, 24]","['0', '0', '9', '10', '11']","['left', 'left', 'up']","[15351, 15950, 16509]","{'click': {'state': {'target': ['9', '1', '5', '10', '12', '11', '8', '7', '6', '3', '2', '4'], 'time': [1733, 2164, 2641, 3565, 3940, 4475, 6184, 7447, 8324, 9240, 9759, 10260]}, 'edge': {'target': [], 'time': []}}, 'mouseover': {'state': {'target': [], 'time': []}, 'edge': {'target': [], 'time': []}}, 'mouseout': {'state': {'target': [], 'time': []}, 'edge': {'target': [], 'time': []}}}",17.01,17365.0,3
208,mouselab-mdp,19,384160,-12.0,"[8651, 89, 55]",[],"['', -2, 4, 48, -48, 4, -8, 48, 24, -2, -8, 24, 48]",-4.507891731722672e+18,test,10.0,38.0,"[None, None, None]","[4, -8, 48]","['0', '0', '5', '6', '7']","['right', 'right', 'up']","[9390, 9968, 10518]","{'click': {'state': {'target': ['5', '1', '9', '6', '8', '7'], 'time': [2384, 5012, 5998, 7094, 7600, 8116]}, 'edge': {'target': [], 'time': []}}, 'mouseover': {'state': {'target': [], 'time': []}, 'edge': {'target': [], 'time': []}}, 'mouseout': {'state': {'target': [], 'time': []}, 'edge': {'target': [], 'time': []}}}",11.01,11407.0,3
209,mouselab-mdp,20,395244,-13.0,"[5662, 90, 91]",[],"['', 4, 4, 48, 24, 4, -4, 24, -48, -2, -8, -24, -48]",5.662483218820924e+17,test,11.0,52.0,"[None, None, None]","[4, 4, 48]","['0', '0', '1', '2', '3']","['up', 'up', 'right']","[6256, 6855, 7440]","{'click': {'state': {'target': ['9', '1', '5', '3'], 'time': [1259, 2130, 2875, 4057]}, 'edge': {'target': [], 'time': []}}, 'mouseover': {'state': {'target': [], 'time': []}, 'edge': {'target': [], 'time': []}}, 'mouseout': {'state': {'target': [], 'time': []}, 'edge': {'target': [], 'time': []}}}",9.6,10060.0,3
210,mouselab-mdp,21,412247,-14.0,"[12529, 161, 415]",[],"['', 2, 4, 24, 24, -4, -8, 24, 48, -4, -4, -24, -24]",7.794057713406285e+17,test,12.0,26.0,"[None, None, None]","[-4, -8, 48]","['0', '0', '5', '6', '8']","['right', 'right', 'down']","[13339, 13995, 14915]","{'click': {'state': {'target': ['5', '1', '9', '4', '3', '2', '11', '12', '8', '7'], 'time': [1247, 3417, 4056, 6924, 7403, 8118, 9349, 10400, 11702, 12245]}, 'edge': {'target': [], 'time': []}}, 'mouseover': {'state': {'target': [], 'time': []}, 'edge': {'target': [], 'time': []}}, 'mouseout': {'state': {'target': [], 'time': []}, 'edge': {'target': [], 'time': []}}}",15.42,15979.0,3
211,mouselab-mdp,22,426758,-15.0,"[9161, 105, 280]",[],"['', -4, 4, 24, -24, 4, 4, -48, -48, -4, -4, -48, 24]",3.6473831872521006e+18,test,13.0,6.0,"[None, None, None]","[-4, -4, 24]","['0', '0', '9', '10', '12']","['left', 'left', 'down']","[11295, 11903, 12679]","{'click': {'state': {'target': ['9', '5', '1', '6', '8', '7', '3', '4', '11', '12'], 'time': [3017, 4050, 4732, 5648, 6072, 6748, 7475, 8265, 9494, 10139]}, 'edge': {'target': [], 'time': []}}, 'mouseover': {'state': {'target': [], 'time': []}, 'edge': {'target': [], 'time': []}}, 'mouseout': {'state': {'target': [], 'time': []}, 'edge': {'target': [], 'time': []}}}",13.18,13487.0,3
212,mouselab-mdp,23,436830,-16.0,"[6015, 101, 236]",[],"['', -2, -8, -24, 48, 4, 8, 48, -48, -4, -8, -24, -48]",-1.9664322346226647e+18,test,14.0,55.0,"[None, None, None]","[4, 8, 48]","['0', '0', '5', '6', '7']","['right', 'right', 'up']","[6855, 7471, 8207]","{'click': {'state': {'target': ['9', '5', '1', '8', '7'], 'time': [1381, 2165, 2642, 4447, 5250]}, 'edge': {'target': [], 'time': []}}, 'mouseover': {'state': {'target': [], 'time': []}, 'edge': {'target': [], 'time': []}}, 'mouseout': {'state': {'target': [], 'time': []}, 'edge': {'target': [], 'time': []}}}",8.85,9047.0,3
213,mouselab-mdp,24,446925,-17.0,"[4935, 893, 188]",[],"['', 2, -4, -24, -24, -4, 4, 24, -48, 4, 8, 48, 48]",-4.2504753121493e+18,test,15.0,56.0,"[None, None, None]","[4, 8, 48]","['0', '0', '9', '10', '12']","['left', 'left', 'down']","[5554, 6946, 7626]","{'click': {'state': {'target': ['5', '9', '1', '12'], 'time': [1573, 2111, 2681, 3893]}, 'edge': {'target': [], 'time': []}}, 'mouseover': {'state': {'target': [], 'time': []}, 'edge': {'target': [], 'time': []}}, 'mouseout': {'state': {'target': [], 'time': []}, 'edge': {'target': [], 'time': []}}}",8.62,9057.0,3
214,mouselab-mdp,25,465685,-18.0,"[15134, 65, 92]",[],"['', -2, 4, -48, -24, -4, -8, -48, -24, -2, 4, -24, 24]",4.5069834463827953e+18,test,16.0,15.0,"[None, None, None]","[-2, 4, 24]","['0', '0', '9', '10', '12']","['left', 'left', 'down']","[15673, 16241, 16833]","{'click': {'state': {'target': ['9', '5', '1', '3', '4', '12', '11', '10', '8', '7', '6'], 'time': [1459, 2583, 3414, 4034, 7591, 9014, 9847, 10814, 13222, 13977, 14585]}, 'edge': {'target': [], 'time': []}}, 'mouseover': {'state': {'target': [], 'time': []}, 'edge': {'target': [], 'time': []}}, 'mouseout': {'state': {'target': [], 'time': []}, 'edge': {'target': [], 'time': []}}}",17.32,17737.0,3
215,mouselab-mdp,26,476028,-19.0,"[5730, 101, 268]",[],"['', -4, -8, -48, -48, 4, 4, 24, 48, -4, -4, 24, 48]",7.07260772544739e+18,test,17.0,52.0,"[None, None, None]","[4, 4, 48]","['0', '0', '5', '6', '8']","['right', 'right', 'down']","[6606, 7199, 7967]","{'click': {'state': {'target': ['9', '1', '5', '8'], 'time': [1845, 2670, 4416, 5129]}, 'edge': {'target': [], 'time': []}}, 'mouseover': {'state': {'target': [], 'time': []}, 'edge': {'target': [], 'time': []}}, 'mouseout': {'state': {'target': [], 'time': []}, 'edge': {'target': [], 'time': []}}}",8.88,9318.0,3
216,mouselab-mdp,27,495092,-20.0,"[15318, 151, 93]",[],"['', -2, -8, 24, 24, 2, -4, 24, -48, -2, -4, -24, -48]",7.037128295931229e+18,test,18.0,11.0,"[None, None, None]","[2, -4, 24]","['0', '0', '5', '6', '7']","['right', 'right', 'up']","[15960, 16608, 17200]","{'click': {'state': {'target': ['5', '1', '9', '8', '7', '6', '12', '11', '4', '3', '2'], 'time': [2143, 2757, 3408, 4123, 4831, 5369, 6904, 7550, 8280, 8980, 10151]}, 'edge': {'target': [], 'time': []}}, 'mouseover': {'state': {'target': [], 'time': []}, 'edge': {'target': [], 'time': []}}, 'mouseout': {'state': {'target': [], 'time': []}, 'edge': {'target': [], 'time': []}}}",17.69,18040.0,3
217,mouselab-mdp,28,507859,-21.0,"[8693, 84, 259]",[],"['', 4, -8, 24, 24, 2, 4, -24, 24, 4, -4, 48, -48]",-7.876836446114167e+18,test,19.0,41.0,"[None, None, None]","[4, -4, 48]","['0', '0', '9', '10', '11']","['left', 'left', 'up']","[9537, 10113, 10873]","{'click': {'state': {'target': ['5', '1', '9', '3', '4', '12', '11'], 'time': [2023, 2558, 3120, 3980, 6512, 7553, 8352]}, 'edge': {'target': [], 'time': []}}, 'mouseover': {'state': {'target': [], 'time': []}, 'edge': {'target': [], 'time': []}}, 'mouseout': {'state': {'target': [], 'time': []}, 'edge': {'target': [], 'time': []}}}",11.36,11745.0,3
218,mouselab-mdp,29,520731,-22.0,"[5642, 105, 233]",[],"['', 2, -8, 24, 48, 4, 4, 48, 48, 2, -8, -48, -48]",7.007154183592665e+18,test,20.0,52.0,"[None, None, None]","[4, 4, 48]","['0', '0', '5', '6', '8']","['right', 'right', 'down']","[8176, 8800, 9528]","{'click': {'state': {'target': ['5', '1', '9', '8'], 'time': [3405, 3974, 5902, 6618]}, 'edge': {'target': [], 'time': []}}, 'mouseover': {'state': {'target': [], 'time': []}, 'edge': {'target': [], 'time': []}}, 'mouseout': {'state': {'target': [], 'time': []}, 'edge': {'target': [], 'time': []}}}",11.54,11847.0,3
219,mouselab-mdp,30,537186,-23.0,"[9838, 91, 649]",[],"['', 4, -4, -48, -48, -4, 8, -48, -24, 4, -4, 48, -24]",-6.340653903295127e+18,test,21.0,41.0,"[None, None, None]","[4, -4, 48]","['0', '0', '9', '10', '11']","['left', 'left', 'up']","[12879, 13465, 14607]","{'click': {'state': {'target': ['5', '1', '9', '3', '4', '12', '11'], 'time': [3844, 6326, 7547, 9133, 9929, 10825, 11722]}, 'edge': {'target': [], 'time': []}}, 'mouseover': {'state': {'target': [], 'time': []}, 'edge': {'target': [], 'time': []}}, 'mouseout': {'state': {'target': [], 'time': []}, 'edge': {'target': [], 'time': []}}}",15.11,15431.0,3
220,mouselab-mdp,31,548986,-24.0,"[7904, 229, 247]",[],"['', -4, -8, -48, -48, -2, -8, -48, 48, -2, 4, -24, -24]",5.130275037508485e+18,test,22.0,31.0,"[None, None, None]","[-2, -8, 48]","['0', '0', '5', '6', '8']","['right', 'right', 'down']","[8477, 9197, 9949]","{'click': {'state': {'target': ['5', '1', '9', '12', '11', '7', '8'], 'time': [1367, 2029, 3880, 4627, 5282, 6237, 7010]}, 'edge': {'target': [], 'time': []}}, 'mouseover': {'state': {'target': [], 'time': []}, 'edge': {'target': [], 'time': []}}, 'mouseout': {'state': {'target': [], 'time': []}, 'edge': {'target': [], 'time': []}}}",10.45,10773.0,3
221,mouselab-mdp,32,566268,-25.0,"[11714, 76, 102]",[],"['', 4, 8, 24, 24, -4, -4, -24, -48, 2, -4, 48, 48]",2.060778120775652e+18,test,23.0,39.0,"[None, None, None]","[2, -4, 48]","['0', '0', '9', '10', '11']","['left', 'left', 'up']","[14246, 14815, 15407]","{'click': {'state': {'target': ['5', '1', '9', '3', '4', '2', '11'], 'time': [3383, 4023, 6651, 8166, 9963, 10996, 12577]}, 'edge': {'target': [], 'time': []}}, 'mouseover': {'state': {'target': [], 'time': []}, 'edge': {'target': [], 'time': []}}, 'mouseout': {'state': {'target': [], 'time': []}, 'edge': {'target': [], 'time': []}}}",15.91,16258.0,3
222,mouselab-mdp,33,577969,-26.0,"[6566, 76, 61]",[],"['', -2, 8, 24, 48, 2, 4, -24, 24, 4, 8, 48, 24]",2.790125680448452e+18,test,24.0,55.0,"[None, None, None]","[4, 8, 48]","['0', '0', '9', '10', '11']","['left', 'left', 'up']","[7917, 8486, 9038]","{'click': {'state': {'target': ['5', '1', '9', '12', '11'], 'time': [2330, 3016, 3801, 4807, 6844]}, 'edge': {'target': [], 'time': []}}, 'mouseover': {'state': {'target': [], 'time': []}, 'edge': {'target': [], 'time': []}}, 'mouseout': {'state': {'target': [], 'time': []}, 'edge': {'target': [], 'time': []}}}",10.36,10678.0,3
223,mouselab-mdp,34,594272,-27.0,"[10024, 534, 293]",[],"['', -4, 8, -48, 24, -2, 4, -48, -48, 4, 8, -24, 24]",6.406480628110735e+18,test,25.0,31.0,"[None, None, None]","[4, 8, 24]","['0', '0', '9', '10', '12']","['left', 'left', 'down']","[12705, 13754, 14546]","{'click': {'state': {'target': ['5', '1', '9', '12', '11'], 'time': [6761, 7406, 8099, 10418, 11173]}, 'edge': {'target': [], 'time': []}}, 'mouseover': {'state': {'target': [], 'time': []}, 'edge': {'target': [], 'time': []}}, 'mouseout': {'state': {'target': [], 'time': []}, 'edge': {'target': [], 'time': []}}}",15.04,15274.0,3
224,mouselab-mdp,35,612151,-28.0,"[14158, 65, 155]",[],"['', -4, 8, 48, -48, -4, -4, -48, 48, -2, 8, 24, 48]",-4.689310195682358e+18,test,26.0,49.0,"[None, None, None]","[-2, 8, 48]","['0', '0', '9', '10', '12']","['left', 'left', 'down']","[14882, 15441, 16097]","{'click': {'state': {'target': ['9', '5', '1', '11', '12'], 'time': [2061, 3699, 4872, 6676, 13696]}, 'edge': {'target': [], 'time': []}}, 'mouseover': {'state': {'target': [], 'time': []}, 'edge': {'target': [], 'time': []}}, 'mouseout': {'state': {'target': [], 'time': []}, 'edge': {'target': [], 'time': []}}}",16.59,16857.0,3
225,mouselab-mdp,36,624975,-29.0,"[8578, 56, 227]",[],"['', 2, 8, -48, -48, 4, 4, -48, 48, 4, 8, 24, -48]",2.59484151301768e+18,test,27.0,53.0,"[None, None, None]","[4, 4, 48]","['0', '0', '5', '6', '8']","['right', 'right', 'down']","[9566, 10133, 10854]","{'click': {'state': {'target': ['5', '1', '8'], 'time': [6282, 7250, 8192]}, 'edge': {'target': [], 'time': []}}, 'mouseover': {'state': {'target': [], 'time': []}, 'edge': {'target': [], 'time': []}}, 'mouseout': {'state': {'target': [], 'time': []}, 'edge': {'target': [], 'time': []}}}",11.35,11797.0,3
226,mouselab-mdp,37,638174,-30.0,"[6403, 397, 137]",[],"['', 2, 4, -24, 48, 2, -8, -24, 48, 4, 4, 24, 24]",-1.6616713928916293e+18,test,28.0,37.0,"[None, None, None]","[2, -8, 48]","['0', '0', '5', '6', '8']","['right', 'right', 'down']","[9806, 10702, 11342]","{'click': {'state': {'target': ['9', '12', '11', '5', '8'], 'time': [4351, 5654, 6591, 7924, 8708]}, 'edge': {'target': [], 'time': []}}, 'mouseover': {'state': {'target': [], 'time': []}, 'edge': {'target': [], 'time': []}}, 'mouseout': {'state': {'target': [], 'time': []}, 'edge': {'target': [], 'time': []}}}",11.84,12174.0,3
227,mouselab-mdp,38,665789,-31.0,"[14242, 103, 278]",[],"['', 4, -8, -24, -24, -4, 8, -24, 24, -2, -8, -48, -48]",3.4572940745595366e+18,test,29.0,20.0,"[None, None, None]","[-4, 8, 24]","['0', '0', '5', '6', '8']","['right', 'right', 'down']","[24253, 24860, 25636]","{'click': {'state': {'target': ['5', '1', '4', '3', '12', '11', '8', '7'], 'time': [12335, 13460, 15559, 16540, 18777, 19881, 20765, 21808]}, 'edge': {'target': [], 'time': []}}, 'mouseover': {'state': {'target': [], 'time': []}, 'edge': {'target': [], 'time': []}}, 'mouseout': {'state': {'target': [], 'time': []}, 'edge': {'target': [], 'time': []}}}",26.14,26588.0,3
264,mouselab-mdp,3,138025,-2.0,"[3374, 1245, 647]",[],"['', 2, 4, -24, 48, -2, -8, 48, 24, 4, 8, -48, -48]",-2.597539031851428e+18,test,0.0,14.0,"[None, None, None]","[-2, -8, 24]","['0', '0', '5', '6', '8']","['right', 'right', 'down']","[5250, 6990, 8126]","{'click': {'state': {'target': [], 'time': []}, 'edge': {'target': [], 'time': []}}, 'mouseover': {'state': {'target': [], 'time': []}, 'edge': {'target': [], 'time': []}}, 'mouseout': {'state': {'target': [], 'time': []}, 'edge': {'target': [], 'time': []}}}",8.88,11725.0,4
265,mouselab-mdp,4,149175,-3.0,"[1299, 461, 628]",[],"['', 4, -4, 24, -24, -2, -4, -24, -24, 2, -4, 48, 24]",1.598574912455298e+18,test,1.0,22.0,"[None, None, None]","[2, -4, 24]","['0', '0', '9', '10', '12']","['left', 'left', 'down']","[3919, 4877, 5999]","{'click': {'state': {'target': [], 'time': []}, 'edge': {'target': [], 'time': []}}, 'mouseover': {'state': {'target': [], 'time': []}, 'edge': {'target': [], 'time': []}}, 'mouseout': {'state': {'target': [], 'time': []}, 'edge': {'target': [], 'time': []}}}",9.62,10060.0,4
266,mouselab-mdp,5,162378,-4.0,"[718, 217, 181]",[],"['', 2, -4, -48, -24, -2, -4, 48, -24, 4, 4, 48, -24]",7.520829653297501e+18,test,2.0,-50.0,"[None, None, None]","[2, -4, -48]","['0', '0', '1', '2', '3']","['up', 'up', 'right']","[1377, 2099, 2771]","{'click': {'state': {'target': [], 'time': []}, 'edge': {'target': [], 'time': []}}, 'mouseover': {'state': {'target': [], 'time': []}, 'edge': {'target': [], 'time': []}}, 'mouseout': {'state': {'target': [], 'time': []}, 'edge': {'target': [], 'time': []}}}",8.66,12132.0,4
267,mouselab-mdp,6,183066,-5.0,"[1315, 291, 243]",[],"['', 2, -4, -48, 48, -4, -8, -24, -24, -4, 4, -48, 24]",-6.157917720371e+18,test,3.0,46.0,"[None, None, None]","[2, -4, 48]","['0', '0', '1', '2', '4']","['up', 'up', 'left']","[2103, 2887, 3621]","{'click': {'state': {'target': [], 'time': []}, 'edge': {'target': [], 'time': []}}, 'mouseover': {'state': {'target': [], 'time': []}, 'edge': {'target': [], 'time': []}}, 'mouseout': {'state': {'target': [], 'time': []}, 'edge': {'target': [], 'time': []}}}",8.79,19623.0,4
268,mouselab-mdp,7,196490,-6.0,"[1685, 168, 113]",[],"['', -4, -8, -48, 24, 2, -8, -48, 48, 2, -8, -24, 24]",-3.537338363954668e+18,test,4.0,18.0,"[None, None, None]","[2, -8, 24]","['0', '0', '9', '10', '12']","['left', 'left', 'down']","[3052, 3724, 4331]","{'click': {'state': {'target': [], 'time': []}, 'edge': {'target': [], 'time': []}}, 'mouseover': {'state': {'target': [], 'time': []}, 'edge': {'target': [], 'time': []}}, 'mouseout': {'state': {'target': [], 'time': []}, 'edge': {'target': [], 'time': []}}}",10.37,12364.0,4
269,mouselab-mdp,8,211483,-7.0,"[1210, 37, 461]",[],"['', 4, 4, -48, 24, -2, 4, 48, -24, 4, 4, -48, 48]",3.9111036278787256e+18,test,5.0,50.0,"[None, None, None]","[-2, 4, 48]","['0', '0', '5', '6', '7']","['right', 'right', 'up']","[2019, 2547, 3524]","{'click': {'state': {'target': [], 'time': []}, 'edge': {'target': [], 'time': []}}, 'mouseover': {'state': {'target': [], 'time': []}, 'edge': {'target': [], 'time': []}}, 'mouseout': {'state': {'target': [], 'time': []}, 'edge': {'target': [], 'time': []}}}",9.81,13924.0,4
270,mouselab-mdp,9,222409,-8.0,"[1757, 323, 65]",[],"['', -2, -8, 48, 24, 4, 4, 48, 24, 2, -8, -24, -48]",-6.480731593057875e+18,test,6.0,-30.0,"[None, None, None]","[2, -8, -24]","['0', '0', '9', '10', '11']","['left', 'left', 'up']","[2203, 3017, 3578]","{'click': {'state': {'target': [], 'time': []}, 'edge': {'target': [], 'time': []}}, 'mouseover': {'state': {'target': [], 'time': []}, 'edge': {'target': [], 'time': []}}, 'mouseout': {'state': {'target': [], 'time': []}, 'edge': {'target': [], 'time': []}}}",9.45,9850.0,4
271,mouselab-mdp,10,234520,-9.0,"[991, 204, 241]",[],"['', 2, -4, 48, -48, 2, -8, 24, -24, -4, -8, 24, -24]",-8.9773510994757e+18,test,7.0,-50.0,"[None, None, None]","[2, -4, -48]","['0', '0', '1', '2', '4']","['up', 'up', 'left']","[1370, 2074, 2810]","{'click': {'state': {'target': [], 'time': []}, 'edge': {'target': [], 'time': []}}, 'mouseover': {'state': {'target': [], 'time': []}, 'edge': {'target': [], 'time': []}}, 'mouseout': {'state': {'target': [], 'time': []}, 'edge': {'target': [], 'time': []}}}",9.38,11080.0,4
272,mouselab-mdp,11,245450,-10.0,"[1649, 233, 88]",[],"['', 4, 8, -48, -48, -4, 8, -48, -24, 4, 4, 24, -24]",5.673770806327289e+18,test,8.0,-44.0,"[None, None, None]","[-4, 8, -48]","['0', '0', '5', '6', '7']","['right', 'right', 'up']","[2086, 2822, 3413]","{'click': {'state': {'target': [], 'time': []}, 'edge': {'target': [], 'time': []}}, 'mouseover': {'state': {'target': [], 'time': []}, 'edge': {'target': [], 'time': []}}, 'mouseout': {'state': {'target': [], 'time': []}, 'edge': {'target': [], 'time': []}}}",9.44,9845.0,4
273,mouselab-mdp,12,263018,-11.0,"[775, 104, 29]",[],"['', 4, 4, 48, -24, 4, -4, -48, 48, 2, -8, 48, 24]",-8.580200434703875e+18,test,9.0,-16.0,"[None, None, None]","[4, 4, -24]","['0', '0', '1', '2', '4']","['up', 'up', 'left']","[1140, 1733, 2259]","{'click': {'state': {'target': [], 'time': []}, 'edge': {'target': [], 'time': []}}, 'mouseover': {'state': {'target': [], 'time': []}, 'edge': {'target': [], 'time': []}}, 'mouseout': {'state': {'target': [], 'time': []}, 'edge': {'target': [], 'time': []}}}",9.37,16500.0,4
274,mouselab-mdp,13,275256,-12.0,"[1207, 189, 148]",[],"['', -2, 8, -24, 24, 2, -8, -48, -24, 4, -4, 48, -48]",-6.373051720525899e+18,test,10.0,-54.0,"[None, None, None]","[2, -8, -48]","['0', '0', '5', '6', '7']","['right', 'right', 'up']","[1593, 2279, 2919]","{'click': {'state': {'target': [], 'time': []}, 'edge': {'target': [], 'time': []}}, 'mouseover': {'state': {'target': [], 'time': []}, 'edge': {'target': [], 'time': []}}, 'mouseout': {'state': {'target': [], 'time': []}, 'edge': {'target': [], 'time': []}}}",9.39,11175.0,4
275,mouselab-mdp,14,286121,-13.0,"[1097, 263, 642]",[],"['', -4, -4, -24, 24, -2, 4, 24, 24, 2, -8, 48, 48]",-3.858448030437114e+18,test,11.0,42.0,"[None, None, None]","[2, -8, 48]","['0', '0', '9', '10', '11']","['left', 'left', 'up']","[1490, 2242, 3394]","{'click': {'state': {'target': [], 'time': []}, 'edge': {'target': [], 'time': []}}, 'mouseover': {'state': {'target': [], 'time': []}, 'edge': {'target': [], 'time': []}}, 'mouseout': {'state': {'target': [], 'time': []}, 'edge': {'target': [], 'time': []}}}",9.39,9794.0,4
276,mouselab-mdp,15,307624,-14.0,"[965, 85, 73]",[],"['', -4, 8, -24, -48, 4, -4, 48, 24, 4, 4, 48, -24]",7.112299922459131e+18,test,12.0,-20.0,"[None, None, None]","[-4, 8, -24]","['0', '0', '1', '2', '3']","['up', 'up', 'right']","[11359, 11935, 12510]","{'click': {'state': {'target': [], 'time': []}, 'edge': {'target': [], 'time': []}}, 'mouseover': {'state': {'target': [], 'time': []}, 'edge': {'target': [], 'time': []}}, 'mouseout': {'state': {'target': [], 'time': []}, 'edge': {'target': [], 'time': []}}}",19.4,20477.0,4
277,mouselab-mdp,16,317753,-15.0,"[1196, 106, 19]",[],"['', -4, 4, -48, -24, 4, 4, 24, -48, -2, 4, 48, -48]",-3.2418898182311296e+18,test,13.0,-46.0,"[None, None, None]","[-2, 4, -48]","['0', '0', '9', '10', '12']","['left', 'left', 'down']","[1568, 2175, 2687]","{'click': {'state': {'target': [], 'time': []}, 'edge': {'target': [], 'time': []}}, 'mouseover': {'state': {'target': [], 'time': []}, 'edge': {'target': [], 'time': []}}, 'mouseout': {'state': {'target': [], 'time': []}, 'edge': {'target': [], 'time': []}}}",8.37,9103.0,4
278,mouselab-mdp,17,328631,-16.0,"[639, 103, 126]",[],"['', -4, -4, -24, 48, 4, -4, 24, -48, 2, -4, 48, 24]",6.16152731315937e+18,test,14.0,-32.0,"[None, None, None]","[-4, -4, -24]","['0', '0', '1', '2', '3']","['up', 'up', 'right']","[1019, 1627, 2251]","{'click': {'state': {'target': [], 'time': []}, 'edge': {'target': [], 'time': []}}, 'mouseover': {'state': {'target': [], 'time': []}, 'edge': {'target': [], 'time': []}}, 'mouseout': {'state': {'target': [], 'time': []}, 'edge': {'target': [], 'time': []}}}",9.38,9817.0,4
279,mouselab-mdp,18,339482,-17.0,"[828, 506, 68]",[],"['', -2, 8, -24, 48, 2, 4, -48, 24, 4, -4, 48, 48]",3.7613543166592143e+18,test,15.0,-42.0,"[None, None, None]","[2, 4, -48]","['0', '0', '5', '6', '7']","['right', 'right', 'up']","[1190, 2196, 2757]","{'click': {'state': {'target': [], 'time': []}, 'edge': {'target': [], 'time': []}}, 'mouseover': {'state': {'target': [], 'time': []}, 'edge': {'target': [], 'time': []}}, 'mouseout': {'state': {'target': [], 'time': []}, 'edge': {'target': [], 'time': []}}}",9.36,9782.0,4
280,mouselab-mdp,19,350569,-18.0,"[1444, 125, 245]",[],"['', -2, -8, -48, 24, -4, -4, -24, -48, 2, -8, 24, 24]",8.324563381047185e+18,test,16.0,-58.0,"[None, None, None]","[-2, -8, -48]","['0', '0', '1', '2', '3']","['up', 'up', 'right']","[1827, 2452, 3188]","{'click': {'state': {'target': [], 'time': []}, 'edge': {'target': [], 'time': []}}, 'mouseover': {'state': {'target': [], 'time': []}, 'edge': {'target': [], 'time': []}}, 'mouseout': {'state': {'target': [], 'time': []}, 'edge': {'target': [], 'time': []}}}",8.39,10036.0,4
281,mouselab-mdp,20,361689,-19.0,"[745, 104, 34]",[],"['', -2, 8, 24, 24, -2, 4, -24, -48, 2, -4, 24, 48]",6.610219811563799e+18,test,17.0,46.0,"[None, None, None]","[2, -4, 48]","['0', '0', '9', '10', '12']","['left', 'left', 'down']","[1101, 1707, 2235]","{'click': {'state': {'target': [], 'time': []}, 'edge': {'target': [], 'time': []}}, 'mouseover': {'state': {'target': [], 'time': []}, 'edge': {'target': [], 'time': []}}, 'mouseout': {'state': {'target': [], 'time': []}, 'edge': {'target': [], 'time': []}}}",9.36,10060.0,4
282,mouselab-mdp,21,376265,-20.0,"[3004, 146, 145]",[],"['', 2, -4, -24, -24, -4, 4, 24, -48, 4, 8, 48, 48]",-4.2504753121493e+18,test,18.0,58.0,"[None, None, None]","[4, 8, 48]","['0', '0', '9', '10', '11']","['left', 'left', 'up']","[3735, 4374, 5030]","{'click': {'state': {'target': ['8', '11'], 'time': [1408, 2509]}, 'edge': {'target': [], 'time': []}}, 'mouseover': {'state': {'target': [], 'time': []}, 'edge': {'target': [], 'time': []}}, 'mouseout': {'state': {'target': [], 'time': []}, 'edge': {'target': [], 'time': []}}}",8.73,13527.0,4
283,mouselab-mdp,22,389289,-21.0,"[3744, 114, 92]",[],"['', -2, 8, 48, 24, -2, 4, -48, 48, 4, -8, -48, -48]",-7.383638292178566e+18,test,19.0,47.0,"[None, None, None]","[-2, 4, 48]","['0', '0', '5', '6', '8']","['right', 'right', 'down']","[6191, 6797, 7390]","{'click': {'state': {'target': ['12', '7', '8'], 'time': [3268, 4186, 4954]}, 'edge': {'target': [], 'time': []}}, 'mouseover': {'state': {'target': [], 'time': []}, 'edge': {'target': [], 'time': []}}, 'mouseout': {'state': {'target': [], 'time': []}, 'edge': {'target': [], 'time': []}}}",11.45,11998.0,4
284,mouselab-mdp,23,399497,-22.0,"[4124, 96, 106]",[],"['', -4, -4, -24, 24, -4, -8, -48, -48, 2, -4, -24, 24]",-5.712514638697656e+18,test,20.0,19.0,"[None, None, None]","[2, -4, 24]","['0', '0', '9', '10', '12']","['left', 'left', 'down']","[4676, 5267, 5874]","{'click': {'state': {'target': ['7', '8', '12'], 'time': [1603, 2469, 3515]}, 'edge': {'target': [], 'time': []}}, 'mouseover': {'state': {'target': [], 'time': []}, 'edge': {'target': [], 'time': []}}, 'mouseout': {'state': {'target': [], 'time': []}, 'edge': {'target': [], 'time': []}}}",8.55,9155.0,4
285,mouselab-mdp,24,409608,-23.0,"[2209, 79, 92]",[],"['', 2, -4, -48, 24, 2, 4, -48, 48, -4, 4, 48, -48]",5.297217084176218e+18,test,21.0,47.0,"[None, None, None]","[-4, 4, 48]","['0', '0', '9', '10', '11']","['left', 'left', 'up']","[2795, 3370, 3963]","{'click': {'state': {'target': ['11'], 'time': [1731]}, 'edge': {'target': [], 'time': []}}, 'mouseover': {'state': {'target': [], 'time': []}, 'edge': {'target': [], 'time': []}}, 'mouseout': {'state': {'target': [], 'time': []}, 'edge': {'target': [], 'time': []}}}",8.59,9050.0,4
286,mouselab-mdp,25,421481,-24.0,"[1780, 47, 29]",[],"['', 2, 4, -24, 48, 2, -4, 24, 24, 2, -4, -48, -24]",7.341350411386814e+18,test,22.0,53.0,"[None, None, None]","[2, 4, 48]","['0', '0', '1', '2', '4']","['up', 'up', 'left']","[3133, 3675, 4220]","{'click': {'state': {'target': ['4'], 'time': [1934]}, 'edge': {'target': [], 'time': []}}, 'mouseover': {'state': {'target': [], 'time': []}, 'edge': {'target': [], 'time': []}}, 'mouseout': {'state': {'target': [], 'time': []}, 'edge': {'target': [], 'time': []}}}",10.35,10829.0,4
287,mouselab-mdp,26,433755,-25.0,"[5743, 108, 32]",[],"['', -2, 4, -24, 48, -2, 8, 48, 48, -2, -8, -48, -24]",-8.320322614546437e+17,test,23.0,47.0,"[None, None, None]","[-2, 4, 48]","['0', '0', '1', '2', '4']","['up', 'up', 'left']","[7566, 8174, 8701]","{'click': {'state': {'target': ['12', '11', '4'], 'time': [4631, 5588, 6566]}, 'edge': {'target': [], 'time': []}}, 'mouseover': {'state': {'target': [], 'time': []}, 'edge': {'target': [], 'time': []}}, 'mouseout': {'state': {'target': [], 'time': []}, 'edge': {'target': [], 'time': []}}}",10.82,11216.0,4
288,mouselab-mdp,27,444425,-26.0,"[2462, 163, 203]",[],"['', 2, -8, 24, 48, 4, 4, 48, 48, 2, -8, -48, -48]",7.007154183592665e+18,test,24.0,55.0,"[None, None, None]","[4, 4, 48]","['0', '0', '5', '6', '7']","['right', 'right', 'up']","[3377, 4033, 4737]","{'click': {'state': {'target': ['7'], 'time': [1882]}, 'edge': {'target': [], 'time': []}}, 'mouseover': {'state': {'target': [], 'time': []}, 'edge': {'target': [], 'time': []}}, 'mouseout': {'state': {'target': [], 'time': []}, 'edge': {'target': [], 'time': []}}}",8.92,9600.0,4
289,mouselab-mdp,28,456409,-27.0,"[1520, 156, 99]",[],"['', -4, 4, 48, 48, -4, -4, 24, 48, -4, -8, -48, -24]",1.0106246541947454e+17,test,25.0,47.0,"[None, None, None]","[-4, 4, 48]","['0', '0', '1', '2', '3']","['up', 'up', 'right']","[2924, 3580, 4173]","{'click': {'state': {'target': ['3'], 'time': [1961]}, 'edge': {'target': [], 'time': []}}, 'mouseover': {'state': {'target': [], 'time': []}, 'edge': {'target': [], 'time': []}}, 'mouseout': {'state': {'target': [], 'time': []}, 'edge': {'target': [], 'time': []}}}",10.4,10923.0,4
290,mouselab-mdp,29,472552,-28.0,"[10577, 97, 103]",[],"['', 2, -8, 48, -48, -2, 8, -48, 24, 2, 8, -24, -48]",-5.298439851260359e+18,test,26.0,36.0,"[None, None, None]","[2, -8, 48]","['0', '0', '1', '2', '3']","['up', 'up', 'right']","[12270, 12861, 13468]","{'click': {'state': {'target': ['4', '7', '8', '12', '11', '3'], 'time': [2723, 4078, 4850, 8095, 9538, 11215]}, 'edge': {'target': [], 'time': []}}, 'mouseover': {'state': {'target': [], 'time': []}, 'edge': {'target': [], 'time': []}}, 'mouseout': {'state': {'target': [], 'time': []}, 'edge': {'target': [], 'time': []}}}",13.96,15116.0,4
291,mouselab-mdp,30,507992,-29.0,"[1894, 175, 132]",[],"['', -2, 8, -24, 48, 2, -4, 48, 24, -2, 8, -24, -24]",7.530597343457169e+17,test,27.0,53.0,"[None, None, None]","[-2, 8, 48]","['0', '0', '1', '2', '4']","['up', 'up', 'left']","[2914, 3583, 4209]","{'click': {'state': {'target': ['4'], 'time': [1680]}, 'edge': {'target': [], 'time': []}}, 'mouseover': {'state': {'target': [], 'time': []}, 'edge': {'target': [], 'time': []}}, 'mouseout': {'state': {'target': [], 'time': []}, 'edge': {'target': [], 'time': []}}}",10.02,34384.0,4
292,mouselab-mdp,31,520647,-30.0,"[7789, 245, 200]",[],"['', -2, 4, -48, -24, -4, -8, -48, -24, -2, 4, -24, 24]",4.5069834463827953e+18,test,28.0,20.0,"[None, None, None]","[-2, 4, 24]","['0', '0', '9', '10', '12']","['left', 'left', 'down']","[8634, 9368, 10058]","{'click': {'state': {'target': ['3', '7', '8', '12', '11', '4'], 'time': [1566, 2302, 3043, 3854, 6455, 7076]}, 'edge': {'target': [], 'time': []}}, 'mouseover': {'state': {'target': [], 'time': []}, 'edge': {'target': [], 'time': []}}, 'mouseout': {'state': {'target': [], 'time': []}, 'edge': {'target': [], 'time': []}}}",10.56,11623.0,4
293,mouselab-mdp,32,531416,-31.0,"[3104, 74, 70]",[],"['', 4, 8, 24, 48, -4, 8, -48, -48, -2, -8, 24, -48]",-2.5963408475109453e+18,test,29.0,57.0,"[None, None, None]","[4, 8, 48]","['0', '0', '1', '2', '4']","['up', 'up', 'left']","[4447, 5022, 5581]","{'click': {'state': {'target': ['12', '11', '4'], 'time': [1903, 2674, 3386]}, 'edge': {'target': [], 'time': []}}, 'mouseover': {'state': {'target': [], 'time': []}, 'edge': {'target': [], 'time': []}}, 'mouseout': {'state': {'target': [], 'time': []}, 'edge': {'target': [], 'time': []}}}",9.34,9694.0,4
330,mouselab-mdp,3,90271,-2.0,"[2225, 673, 1075]",[],"['', -2, 8, 24, 48, 2, -4, 48, -48, 2, 8, 24, -48]",4.460497769895528e+18,test,0.0,46.0,"[None, None, None]","[2, -4, 48]","['0', '0', '5', '6', '7']","['right', 'right', 'up']","[5298, 6494, 8082]","{'click': {'state': {'target': [], 'time': []}, 'edge': {'target': [], 'time': []}}, 'mouseover': {'state': {'target': [], 'time': []}, 'edge': {'target': [], 'time': []}}, 'mouseout': {'state': {'target': [], 'time': []}, 'edge': {'target': [], 'time': []}}}",10.08,12374.0,5
331,mouselab-mdp,4,105044,-3.0,"[1704, 729, 428]",[],"['', 4, -4, -48, -24, 2, 4, 48, -48, -4, 4, 48, -48]",2.6140259645257293e+18,test,1.0,-48.0,"[None, None, None]","[-4, 4, -48]","['0', '0', '9', '10', '12']","['left', 'left', 'down']","[4116, 5369, 6299]","{'click': {'state': {'target': [], 'time': []}, 'edge': {'target': [], 'time': []}}, 'mouseover': {'state': {'target': [], 'time': []}, 'edge': {'target': [], 'time': []}}, 'mouseout': {'state': {'target': [], 'time': []}, 'edge': {'target': [], 'time': []}}}",12.41,13684.0,5
332,mouselab-mdp,5,127972,-4.0,"[17192, 127, 306]",[],"['', -2, 4, -24, 24, -4, 8, -24, -48, -4, -8, 24, 24]",3.0235896747776123e+18,test,2.0,2.0,"[None, None, None]","[-4, -8, 24]","['0', '0', '9', '10', '11']","['left', 'left', 'up']","[18346, 18990, 19818]","{'click': {'state': {'target': ['2', '10', '7', '8', '12', '11', '3', '5', '6', '9'], 'time': [2961, 4409, 6121, 7314, 8417, 9301, 10807, 12121, 12961, 14049]}, 'edge': {'target': [], 'time': []}}, 'mouseover': {'state': {'target': [], 'time': []}, 'edge': {'target': [], 'time': []}}, 'mouseout': {'state': {'target': [], 'time': []}, 'edge': {'target': [], 'time': []}}}",20.31,21854.0,5
333,mouselab-mdp,6,144536,-5.0,"[10504, 230, 284]",[],"['', 4, -8, -24, -24, -4, 8, -24, 24, -2, -8, -48, -48]",3.4572940745595366e+18,test,3.0,19.0,"[None, None, None]","[-4, 8, 24]","['0', '0', '5', '6', '8']","['right', 'right', 'down']","[12041, 12775, 13561]","{'click': {'state': {'target': ['2', '10', '8', '7', '3', '4', '11', '12', '5'], 'time': [2269, 3958, 5759, 6645, 7386, 8423, 8998, 9738, 10495]}, 'edge': {'target': [], 'time': []}}, 'mouseover': {'state': {'target': [], 'time': []}, 'edge': {'target': [], 'time': []}}, 'mouseout': {'state': {'target': [], 'time': []}, 'edge': {'target': [], 'time': []}}}",14.08,15467.0,5
334,mouselab-mdp,7,160006,-6.0,"[8758, 80, 320]",[],"['', 2, 4, 24, 48, 2, -4, -24, -48, -2, -8, 48, -48]",-7.082365920985033e+18,test,4.0,46.0,"[None, None, None]","[2, 4, 48]","['0', '0', '1', '2', '4']","['up', 'up', 'left']","[10916, 11520, 12358]","{'click': {'state': {'target': ['2', '3', '1', '10', '12', '8', '7', '4'], 'time': [2986, 3714, 4354, 5090, 5771, 6611, 7465, 9376]}, 'edge': {'target': [], 'time': []}}, 'mouseover': {'state': {'target': [], 'time': []}, 'edge': {'target': [], 'time': []}}, 'mouseout': {'state': {'target': [], 'time': []}, 'edge': {'target': [], 'time': []}}}",12.87,14385.0,5
335,mouselab-mdp,8,171695,-7.0,"[3351, 266, 200]",[],"['', 4, 4, 48, 24, 4, -4, 24, -48, -2, -8, -24, -48]",5.662483218820924e+17,test,5.0,55.0,"[None, None, None]","[4, 4, 48]","['0', '0', '1', '2', '3']","['up', 'up', 'right']","[4322, 5104, 5805]","{'click': {'state': {'target': ['3'], 'time': [1840]}, 'edge': {'target': [], 'time': []}}, 'mouseover': {'state': {'target': [], 'time': []}, 'edge': {'target': [], 'time': []}}, 'mouseout': {'state': {'target': [], 'time': []}, 'edge': {'target': [], 'time': []}}}",8.97,10605.0,5
336,mouselab-mdp,9,182977,-8.0,"[4567, 79, 27]",[],"['', -2, -8, -24, 48, 4, 8, 48, -48, -4, -8, -24, -48]",-1.9664322346226647e+18,test,6.0,57.0,"[None, None, None]","[4, 8, 48]","['0', '0', '5', '6', '7']","['right', 'right', 'up']","[5484, 6082, 6631]","{'click': {'state': {'target': ['12', '8', '7'], 'time': [2347, 3235, 4146]}, 'edge': {'target': [], 'time': []}}, 'mouseover': {'state': {'target': [], 'time': []}, 'edge': {'target': [], 'time': []}}, 'mouseout': {'state': {'target': [], 'time': []}, 'edge': {'target': [], 'time': []}}}",9.92,10205.0,5
337,mouselab-mdp,10,194291,-9.0,"[4176, 78, 215]",[],"['', -2, 8, -24, 48, 2, 4, -48, 48, -2, 4, -24, -48]",-6.593666887814383e+18,test,7.0,51.0,"[None, None, None]","[-2, 8, 48]","['0', '0', '1', '2', '4']","['up', 'up', 'left']","[4956, 5558, 6304]","{'click': {'state': {'target': ['11', '3', '4'], 'time': [2202, 2902, 3695]}, 'edge': {'target': [], 'time': []}}, 'mouseover': {'state': {'target': [], 'time': []}, 'edge': {'target': [], 'time': []}}, 'mouseout': {'state': {'target': [], 'time': []}, 'edge': {'target': [], 'time': []}}}",9.78,10160.0,5
338,mouselab-mdp,11,204723,-10.0,"[3305, 28, 976]",[],"['', -2, 8, -24, -24, -2, 4, -48, 24, -4, -8, 48, -48]",5.44134319392284e+18,test,8.0,34.0,"[None, None, None]","[-4, -8, 48]","['0', '0', '9', '10', '11']","['left', 'left', 'up']","[4068, 4592, 6106]","{'click': {'state': {'target': ['12', '11'], 'time': [1957, 2716]}, 'edge': {'target': [], 'time': []}}, 'mouseover': {'state': {'target': [], 'time': []}, 'edge': {'target': [], 'time': []}}, 'mouseout': {'state': {'target': [], 'time': []}, 'edge': {'target': [], 'time': []}}}",8.77,9297.0,5
339,mouselab-mdp,12,219694,-11.0,"[9202, 22, 242]",[],"['', -2, -4, 24, 24, 4, 8, -24, 48, -4, -8, -48, 24]",-1.7534982563480837e+18,test,9.0,54.0,"[None, None, None]","[4, 8, 48]","['0', '0', '5', '6', '8']","['right', 'right', 'down']","[10757, 11287, 12024]","{'click': {'state': {'target': ['7', '3', '4', '11', '12', '8'], 'time': [5097, 5930, 6754, 8076, 8793, 9764]}, 'edge': {'target': [], 'time': []}}, 'mouseover': {'state': {'target': [], 'time': []}, 'edge': {'target': [], 'time': []}}, 'mouseout': {'state': {'target': [], 'time': []}, 'edge': {'target': [], 'time': []}}}",12.53,13887.0,5
340,mouselab-mdp,13,231386,-12.0,"[4341, 98, 117]",[],"['', 2, -4, 48, -48, 2, -8, 24, -24, -4, -8, 24, -24]",-8.9773510994757e+18,test,10.0,42.0,"[None, None, None]","[2, -4, 48]","['0', '0', '1', '2', '3']","['up', 'up', 'right']","[5456, 6072, 6725]","{'click': {'state': {'target': ['11', '12', '7', '3'], 'time': [2088, 2765, 3629, 4261]}, 'edge': {'target': [], 'time': []}}, 'mouseover': {'state': {'target': [], 'time': []}, 'edge': {'target': [], 'time': []}}, 'mouseout': {'state': {'target': [], 'time': []}, 'edge': {'target': [], 'time': []}}}",10.12,10606.0,5
341,mouselab-mdp,14,242004,-13.0,"[2684, 31, 404]",[],"['', -2, 4, 24, 24, -4, 8, 48, 24, -4, 8, -48, -24]",-3.127342074357005e+18,test,11.0,51.0,"[None, None, None]","[-4, 8, 48]","['0', '0', '5', '6', '7']","['right', 'right', 'up']","[3820, 4363, 5303]","{'click': {'state': {'target': ['7'], 'time': [2589]}, 'edge': {'target': [], 'time': []}}, 'mouseover': {'state': {'target': [], 'time': []}, 'edge': {'target': [], 'time': []}}, 'mouseout': {'state': {'target': [], 'time': []}, 'edge': {'target': [], 'time': []}}}",9.14,9549.0,5
342,mouselab-mdp,15,253072,-14.0,"[4329, 669, 205]",[],"['', -2, -4, 48, -24, 4, -8, 48, -48, 2, -8, 24, -48]",-8.867212192286323e+18,test,12.0,40.0,"[None, None, None]","[4, -8, 48]","['0', '0', '5', '6', '7']","['right', 'right', 'up']","[5230, 6408, 7126]","{'click': {'state': {'target': ['4', '11', '12', '7'], 'time': [1740, 2570, 3325, 4227]}, 'edge': {'target': [], 'time': []}}, 'mouseover': {'state': {'target': [], 'time': []}, 'edge': {'target': [], 'time': []}}, 'mouseout': {'state': {'target': [], 'time': []}, 'edge': {'target': [], 'time': []}}}",8.9,9991.0,5
343,mouselab-mdp,16,264440,-15.0,"[5595, 48, 102]",[],"['', 4, 4, -48, 24, -2, 4, 48, -24, 4, 4, -48, 48]",3.9111036278787256e+18,test,13.0,52.0,"[None, None, None]","[4, 4, 48]","['0', '0', '9', '10', '12']","['left', 'left', 'down']","[6499, 7068, 7709]","{'click': {'state': {'target': ['2', '4', '3', '12'], 'time': [2035, 2598, 3210, 5076]}, 'edge': {'target': [], 'time': []}}, 'mouseover': {'state': {'target': [], 'time': []}, 'edge': {'target': [], 'time': []}}, 'mouseout': {'state': {'target': [], 'time': []}, 'edge': {'target': [], 'time': []}}}",9.91,10293.0,5
344,mouselab-mdp,17,277586,-16.0,"[4379, 165, 114]",[],"['', -4, -8, -48, -48, 4, 4, 24, 48, -4, -4, 24, 48]",7.07260772544739e+18,test,14.0,37.0,"[None, None, None]","[-4, -4, 48]","['0', '0', '9', '10', '12']","['left', 'left', 'down']","[7437, 8117, 8732]","{'click': {'state': {'target': ['7', '11', '12'], 'time': [4404, 5195, 6276]}, 'edge': {'target': [], 'time': []}}, 'mouseover': {'state': {'target': [], 'time': []}, 'edge': {'target': [], 'time': []}}, 'mouseout': {'state': {'target': [], 'time': []}, 'edge': {'target': [], 'time': []}}}",11.06,12071.0,5
345,mouselab-mdp,18,288133,-17.0,"[5570, 140, 319]",[],"['', -4, -4, 24, -24, -4, 4, 24, 24, 4, 4, 48, -48]",-7.890144164692454e+18,test,15.0,52.0,"[None, None, None]","[4, 4, 48]","['0', '0', '9', '10', '11']","['left', 'left', 'up']","[6288, 6941, 7800]","{'click': {'state': {'target': ['3', '8', '7', '11'], 'time': [1364, 3277, 4084, 5053]}, 'edge': {'target': [], 'time': []}}, 'mouseover': {'state': {'target': [], 'time': []}, 'edge': {'target': [], 'time': []}}, 'mouseout': {'state': {'target': [], 'time': []}, 'edge': {'target': [], 'time': []}}}",8.73,9481.0,5
346,mouselab-mdp,19,300496,-18.0,"[7186, 226, 731]",[],"['', 2, 4, -48, 24, -4, 8, 24, -48, 4, -8, 48, 24]",8.563081952235477e+18,test,16.0,40.0,"[None, None, None]","[4, -8, 48]","['0', '0', '9', '10', '11']","['left', 'left', 'up']","[7855, 8585, 9822]","{'click': {'state': {'target': ['4', '3', '8', '11'], 'time': [2445, 3116, 4141, 6636]}, 'edge': {'target': [], 'time': []}}, 'mouseover': {'state': {'target': [], 'time': []}, 'edge': {'target': [], 'time': []}}, 'mouseout': {'state': {'target': [], 'time': []}, 'edge': {'target': [], 'time': []}}}",10.34,11290.0,5
347,mouselab-mdp,20,312198,-19.0,"[5212, 811, 399]",[],"['', 2, 8, -48, -48, 4, 4, -48, 48, 4, 8, 24, -48]",2.59484151301768e+18,test,17.0,51.0,"[None, None, None]","[4, 4, 48]","['0', '0', '5', '6', '8']","['right', 'right', 'down']","[6697, 8015, 8933]","{'click': {'state': {'target': ['3', '12', '11', '7', '8'], 'time': [2536, 3424, 4088, 4809, 5481]}, 'edge': {'target': [], 'time': []}}, 'mouseover': {'state': {'target': [], 'time': []}, 'edge': {'target': [], 'time': []}}, 'mouseout': {'state': {'target': [], 'time': []}, 'edge': {'target': [], 'time': []}}}",9.49,10634.0,5
348,mouselab-mdp,21,324002,-20.0,"[1970, 77, 324]",[],"['', 4, 8, 24, 48, -4, 8, -48, -48, -2, -8, 24, -48]",-2.5963408475109453e+18,test,18.0,59.0,"[None, None, None]","[4, 8, 48]","['0', '0', '1', '2', '4']","['up', 'up', 'left']","[3328, 3929, 4776]","{'click': {'state': {'target': ['4'], 'time': [1991]}, 'edge': {'target': [], 'time': []}}, 'mouseover': {'state': {'target': [], 'time': []}, 'edge': {'target': [], 'time': []}}, 'mouseout': {'state': {'target': [], 'time': []}, 'edge': {'target': [], 'time': []}}}",10.36,10739.0,5
349,mouselab-mdp,22,334263,-21.0,"[1875, 966, 506]",[],"['', 2, -4, 48, -24, -2, 4, 48, -48, 2, 8, -48, 24]",-3.024950732778212e+17,test,19.0,45.0,"[None, None, None]","[2, -4, 48]","['0', '0', '1', '2', '3']","['up', 'up', 'right']","[2720, 4177, 5200]","{'click': {'state': {'target': ['3'], 'time': [1397]}, 'edge': {'target': [], 'time': []}}, 'mouseover': {'state': {'target': [], 'time': []}, 'edge': {'target': [], 'time': []}}, 'mouseout': {'state': {'target': [], 'time': []}, 'edge': {'target': [], 'time': []}}}",8.85,9195.0,5
350,mouselab-mdp,23,345391,-22.0,"[2956, 299, 149]",[],"['', -4, -4, -24, 48, 4, 8, 24, -24, -2, 8, 24, 48]",-2.851190945072683e+17,test,20.0,52.0,"[None, None, None]","[-2, 8, 48]","['0', '0', '9', '10', '12']","['left', 'left', 'down']","[3622, 4440, 5104]","{'click': {'state': {'target': ['8', '12'], 'time': [1659, 2315]}, 'edge': {'target': [], 'time': []}}, 'mouseover': {'state': {'target': [], 'time': []}, 'edge': {'target': [], 'time': []}}, 'mouseout': {'state': {'target': [], 'time': []}, 'edge': {'target': [], 'time': []}}}",9.67,10051.0,5
351,mouselab-mdp,24,356619,-23.0,"[4734, 63, 473]",[],"['', 2, -4, -24, -48, 4, -8, 48, -48, 2, -8, 48, -48]",2.735284467270542e+18,test,21.0,37.0,"[None, None, None]","[2, -8, 48]","['0', '0', '9', '10', '11']","['left', 'left', 'up']","[5882, 6467, 7441]","{'click': {'state': {'target': ['4', '3', '8', '12', '11'], 'time': [1696, 2350, 3278, 4086, 4783]}, 'edge': {'target': [], 'time': []}}, 'mouseover': {'state': {'target': [], 'time': []}, 'edge': {'target': [], 'time': []}}, 'mouseout': {'state': {'target': [], 'time': []}, 'edge': {'target': [], 'time': []}}}",9.15,10161.0,5
352,mouselab-mdp,25,367824,-24.0,"[4696, 94, 221]",[],"['', -4, 4, -48, -24, 4, 4, 24, -48, -2, 4, 48, -48]",-3.2418898182311296e+18,test,22.0,46.0,"[None, None, None]","[-2, 4, 48]","['0', '0', '9', '10', '11']","['left', 'left', 'up']","[6164, 6768, 7511]","{'click': {'state': {'target': ['3', '12', '7', '11'], 'time': [2146, 3027, 4114, 5163]}, 'edge': {'target': [], 'time': []}}, 'mouseover': {'state': {'target': [], 'time': []}, 'edge': {'target': [], 'time': []}}, 'mouseout': {'state': {'target': [], 'time': []}, 'edge': {'target': [], 'time': []}}}",9.47,10087.0,5
353,mouselab-mdp,26,377727,-25.0,"[3175, 628, 4]",[],"['', -4, -4, -48, 24, 4, 4, 48, -24, 4, -4, 48, 24]",1.5188454736172308e+18,test,23.0,54.0,"[None, None, None]","[4, 4, 48]","['0', '0', '5', '6', '7']","['right', 'right', 'up']","[3654, 4796, 5320]","{'click': {'state': {'target': ['4', '7'], 'time': [1805, 2557]}, 'edge': {'target': [], 'time': []}}, 'mouseover': {'state': {'target': [], 'time': []}, 'edge': {'target': [], 'time': []}}, 'mouseout': {'state': {'target': [], 'time': []}, 'edge': {'target': [], 'time': []}}}",8.48,8785.0,5
354,mouselab-mdp,27,387868,-26.0,"[1813, 31, 192]",[],"['', 2, 8, 48, 48, -4, -8, 24, 48, 4, 4, 48, 24]",4.610111718856282e+17,test,24.0,57.0,"[None, None, None]","[2, 8, 48]","['0', '0', '1', '2', '3']","['up', 'up', 'right']","[2560, 3102, 3828]","{'click': {'state': {'target': ['3'], 'time': [1407]}, 'edge': {'target': [], 'time': []}}, 'mouseover': {'state': {'target': [], 'time': []}, 'edge': {'target': [], 'time': []}}, 'mouseout': {'state': {'target': [], 'time': []}, 'edge': {'target': [], 'time': []}}}",8.75,9063.0,5
